
      	X(nS)     	Ch1(mV)      


 1    	0.0000    	-41.487549  
 2    	0.0587    	-42.134460  
 3    	0.1173    	-41.775085  
 4    	0.1760    	-41.703186  
 5    	0.2346    	-41.487549  
 6    	0.2933    	-41.271912  
 7    	0.3519    	-41.631287  
 8    	0.4106    	-41.487549  
 9    	0.4692    	-41.487549  
 10   	0.5279    	-41.343811  
 11   	0.5865    	-41.128174  
 12   	0.6452    	-41.128174  
 13   	0.7038    	-41.703186  
 14   	0.7625    	-41.775085  
 15   	0.8211    	-42.134460  
 16   	0.8798    	-42.350037  
 17   	0.9384    	-41.343811  
 18   	0.9971    	-42.493835  
 19   	1.0557    	-42.062561  
 20   	1.1144    	-41.846924  
 21   	1.1730    	-40.984436  
 22   	1.2317    	-41.271912  
 23   	1.2903    	-40.121948  
 24   	1.3490    	-40.768799  
 25   	1.4076    	-40.409424  
 26   	1.4663    	-40.553162  
 27   	1.5249    	-41.559448  
 28   	1.5836    	-41.487549  
 29   	1.6422    	-40.912537  
 30   	1.7009    	-41.631287  
 31   	1.7595    	-41.415710  
 32   	1.8182    	-42.206299  
 33   	1.8768    	-40.984436  
 34   	1.9355    	-41.415710  
 35   	1.9941    	-42.134460  
 36   	2.0528    	-42.134460  
 37   	2.1114    	-42.781311  
 38   	2.1701    	-42.565674  
 39   	2.2287    	-42.781311  
 40   	2.2874    	-42.350037  
 41   	2.3460    	-41.846924  
 42   	2.4047    	-42.493835  
 43   	2.4633    	-42.134460  
 44   	2.5220    	-41.775085  
 45   	2.5806    	-42.350037  
 46   	2.6393    	-42.206299  
 47   	2.6979    	-41.703186  
 48   	2.7566    	-41.703186  
 49   	2.8152    	-42.206299  
 50   	2.8739    	-41.559448  
 51   	2.9326    	-41.990662  
 52   	2.9912    	-41.631287  
 53   	3.0499    	-41.128174  
 54   	3.1085    	-41.631287  
 55   	3.1672    	-42.278198  
 56   	3.2258    	-41.343811  
 57   	3.2845    	-41.775085  
 58   	3.3431    	-41.343811  
 59   	3.4018    	-40.696960  
 60   	3.4604    	-41.415710  
 61   	3.5191    	-41.846924  
 62   	3.5777    	-42.781311  
 63   	3.6364    	-42.134460  
 64   	3.6950    	-41.343811  
 65   	3.7537    	-41.990662  
 66   	3.8123    	-41.487549  
 67   	3.8710    	-41.990662  
 68   	3.9296    	-41.775085  
 69   	3.9883    	-41.631287  
 70   	4.0469    	-41.487549  
 71   	4.1056    	-42.062561  
 72   	4.1642    	-41.918823  
 73   	4.2229    	-41.703186  
 74   	4.2815    	-42.278198  
 75   	4.3402    	-42.206299  
 76   	4.3988    	-41.846924  
 77   	4.4575    	-42.134460  
 78   	4.5161    	-42.062561  
 79   	4.5748    	-41.559448  
 80   	4.6334    	-42.278198  
 81   	4.6921    	-42.709412  
 82   	4.7507    	-42.493835  
 83   	4.8094    	-42.278198  
 84   	4.8680    	-42.493835  
 85   	4.9267    	-42.565674  
 86   	4.9853    	-42.421936  
 87   	5.0440    	-42.062561  
 88   	5.1026    	-41.128174  
 89   	5.1613    	-41.703186  
 90   	5.2199    	-41.775085  
 91   	5.2786    	-41.703186  
 92   	5.3372    	-41.775085  
 93   	5.3959    	-41.128174  
 94   	5.4545    	-42.565674  
 95   	5.5132    	-43.428162  
 96   	5.5718    	-43.356323  
 97   	5.6305    	-42.709412  
 98   	5.6891    	-42.781311  
 99   	5.7478    	-41.990662  
 100  	5.8065    	-43.140686  
 101  	5.8651    	-42.062561  
 102  	5.9238    	-41.559448  
 103  	5.9824    	-41.056335  
 104  	6.0411    	-41.775085  
 105  	6.0997    	-41.703186  
 106  	6.1584    	-41.487549  
 107  	6.2170    	-41.271912  
 108  	6.2757    	-41.559448  
 109  	6.3343    	-41.559448  
 110  	6.3930    	-41.415710  
 111  	6.4516    	-41.631287  
 112  	6.5103    	-41.990662  
 113  	6.5689    	-41.918823  
 114  	6.6276    	-42.062561  
 115  	6.6862    	-42.925049  
 116  	6.7449    	-41.918823  
 117  	6.8035    	-42.134460  
 118  	6.8622    	-41.918823  
 119  	6.9208    	-41.631287  
 120  	6.9795    	-41.415710  
 121  	7.0381    	-41.703186  
 122  	7.0968    	-41.487549  
 123  	7.1554    	-40.912537  
 124  	7.2141    	-40.553162  
 125  	7.2727    	-39.762573  
 126  	7.3314    	-40.121948  
 127  	7.3900    	-40.553162  
 128  	7.4487    	-40.768799  
 129  	7.5073    	-40.696960  
 130  	7.5660    	-40.625061  
 131  	7.6246    	-39.906311  
 132  	7.6833    	-38.971924  
 133  	7.7419    	-38.037537  
 134  	7.8006    	-36.096924  
 135  	7.8592    	-33.725037  
 136  	7.9179    	-31.496948  
 137  	7.9765    	-31.353210  
 138  	8.0352    	-30.921936  
 139  	8.0938    	-29.196960  
 140  	8.1525    	-27.184448  
 141  	8.2111    	-18.775085  
 142  	8.2698    	10.549927   
 143  	8.3284    	32.040588   
 144  	8.3871    	48.931213   
 145  	8.4457    	59.568661   
 146  	8.5044    	67.187439   
 147  	8.5630    	73.224915   
 148  	8.6217    	78.184265   
 149  	8.6804    	81.203064   
 150  	8.7390    	83.503113   
 151  	8.7977    	86.953064   
 152  	8.8563    	88.678040   
 153  	8.9150    	90.403008   
 154  	8.9736    	92.703064   
 155  	9.0323    	92.918640   
 156  	9.0909    	93.134338   
 157  	9.1496    	92.774963   
 158  	9.2082    	93.134338   
 159  	9.2669    	92.846863   
 160  	9.3255    	95.003120   
 161  	9.3842    	94.715515   
 162  	9.4428    	95.146797   
 163  	9.5015    	96.081238   
 164  	9.5601    	95.362488   
 165  	9.6188    	95.578064   
 166  	9.6774    	95.578064   
 167  	9.7361    	95.362488   
 168  	9.7947    	97.159363   
 169  	9.8534    	97.590515   
 170  	9.9120    	97.806213   
 171  	9.9707    	98.093689   
 172  	10.0293   	98.453072   
 173  	10.0880   	98.884338   
 174  	10.1466   	98.884338   
 175  	10.2053   	98.884338   
 176  	10.2639   	98.237480   
 177  	10.3226   	98.237480   
 178  	10.3812   	98.381157   
 179  	10.4399   	99.746758   
 180  	10.4985   	99.603081   
 181  	10.5572   	98.453072   
 182  	10.6158   	99.315613   
 183  	10.6745   	99.962463   
 184  	10.7331   	100.896790  
 185  	10.7918   	98.884338   
 186  	10.8504   	99.531189   
 187  	10.9091   	99.099907   
 188  	10.9677   	99.459290   
 189  	11.0264   	99.243713   
 190  	11.0850   	98.740540   
 191  	11.1437   	99.531189   
 192  	11.2023   	98.740540   
 193  	11.2610   	99.315613   
 194  	11.3196   	99.818672   
 195  	11.3783   	99.171814   
 196  	11.4370   	98.668640   
 197  	11.4956   	97.590515   
 198  	11.5543   	97.590515   
 199  	11.6129   	98.021790   
 200  	11.6716   	98.740540   
 201  	11.7302   	98.668640   
 202  	11.7889   	100.609314  
 203  	11.8475   	99.890564   
 204  	11.9062   	99.674995   
 205  	11.9648   	98.812439   
 206  	12.0235   	99.603081   
 207  	12.0821   	99.387390   
 208  	12.1408   	99.531189   
 209  	12.1994   	100.106140  
 210  	12.2581   	100.034363  
 211  	12.3167   	100.249939  
 212  	12.3754   	100.106140  
 213  	12.4340   	100.393745  
 214  	12.4927   	100.537422  
 215  	12.5513   	100.681213  
 216  	12.6100   	100.537422  
 217  	12.6686   	99.603081   
 218  	12.7273   	100.393745  
 219  	12.7859   	100.393745  
 220  	12.8446   	100.106140  
 221  	12.9032   	99.531189   
 222  	12.9619   	100.681213  
 223  	13.0205   	100.968689  
 224  	13.0792   	100.178040  
 225  	13.1378   	100.896790  
 226  	13.1965   	100.178040  
 227  	13.2551   	100.609314  
 228  	13.3138   	100.753113  
 229  	13.3724   	100.537422  
 230  	13.4311   	99.243713   
 231  	13.4897   	99.531189   
 232  	13.5484   	99.387390   
 233  	13.6070   	99.890564   
 234  	13.6657   	100.034363  
 235  	13.7243   	100.321831  
 236  	13.7830   	99.818672   
 237  	13.8416   	99.962463   
 238  	13.9003   	99.171814   
 239  	13.9589   	99.028015   
 240  	14.0176   	99.171814   
 241  	14.0762   	100.321831  
 242  	14.1349   	100.753113  
 243  	14.1935   	101.759346  
 244  	14.2522   	101.471863  
 245  	14.3109   	101.184258  
 246  	14.3695   	100.393745  
 247  	14.4282   	101.040581  
 248  	14.4868   	100.824890  
 249  	14.5455   	100.321831  
 250  	14.6041   	100.537422  
 251  	14.6628   	99.531189   
 252  	14.7214   	99.315613   
 253  	14.7801   	99.746758   
 254  	14.8387   	98.668640   
 255  	14.8974   	99.028015   
 256  	14.9560   	98.524963   
 257  	15.0147   	98.956230   
 258  	15.0733   	98.812439   
 259  	15.1320   	98.453072   
 260  	15.1906   	97.949890   
 261  	15.2493   	98.453072   
 262  	15.3079   	99.387390   
 263  	15.3666   	98.453072   
 264  	15.4252   	97.159363   
 265  	15.4839   	97.734306   
 266  	15.5425   	96.799988   
 267  	15.6012   	96.368706   
 268  	15.6598   	95.362488   
 269  	15.7185   	95.146797   
 270  	15.7771   	96.584290   
 271  	15.8358   	96.296814   
 272  	15.8944   	95.506165   
 273  	15.9531   	96.656189   
 274  	16.0117   	95.865547   
 275  	16.0704   	96.153015   
 276  	16.1290   	95.937439   
 277  	16.1877   	96.512383   
 278  	16.2463   	95.937439   
 279  	16.3050   	95.793633   
 280  	16.3636   	96.584290   
 281  	16.4223   	95.362488   
 282  	16.4809   	95.721870   
 283  	16.5396   	95.146797   
 284  	16.5982   	95.290588   
 285  	16.6569   	95.506165   
 286  	16.7155   	95.793633   
 287  	16.7742   	95.434265   
 288  	16.8328   	94.931206   
 289  	16.8915   	95.649956   
 290  	16.9501   	96.799988   
 291  	17.0088   	97.231148   
 292  	17.0674   	97.159363   
 293  	17.1261   	97.374939   
 294  	17.1848   	97.087471   
 295  	17.2434   	97.159363   
 296  	17.3021   	97.878113   
 297  	17.3607   	97.231148   
 298  	17.4194   	97.303040   
 299  	17.4780   	97.015556   
 300  	17.5367   	97.159363   
 301  	17.5953   	97.374939   
 302  	17.6540   	97.949890   
 303  	17.7126   	96.440613   
 304  	17.7713   	96.296814   
 305  	17.8299   	96.584290   
 306  	17.8886   	95.937439   
 307  	17.9472   	95.937439   
 308  	18.0059   	96.224915   
 309  	18.0645   	95.578064   
 310  	18.1232   	96.871765   
 311  	18.1818   	97.087471   
 312  	18.2405   	96.656189   
 313  	18.2991   	96.296814   
 314  	18.3578   	96.512383   
 315  	18.4164   	96.009338   
 316  	18.4751   	95.578064   
 317  	18.5337   	95.721870   
 318  	18.5924   	95.218689   
 319  	18.6510   	93.349915   
 320  	18.7097   	93.278015   
 321  	18.7683   	92.990540   
 322  	18.8270   	92.990540   
 323  	18.8856   	92.343681   
 324  	18.9443   	91.768738   
 325  	19.0029   	90.618713   
 326  	19.0616   	90.043640   
 327  	19.1202   	88.390564   
 328  	19.1789   	87.815613   
 329  	19.2375   	87.096863   
 330  	19.2962   	86.378113   
 331  	19.3548   	84.940613   
 332  	19.4135   	83.574890   
 333  	19.4721   	83.287415   
 334  	19.5308   	82.712463   
 335  	19.5894   	80.412415   
 336  	19.6481   	80.268738   
 337  	19.7067   	79.549988   
 338  	19.7654   	78.974915   
 339  	19.8240   	78.256165   
 340  	19.8827   	77.537415   
 341  	19.9413   	76.171814   
 342  	20.0000   	75.237488   
 343  	20.0587   	73.656189   
 344  	20.1173   	72.793640   
 345  	20.1760   	71.356140   
 346  	20.2346   	69.415588   
 347  	20.2933   	67.906189   
 348  	20.3519   	66.899963   
 349  	20.4106   	65.462463   
 350  	20.4692   	64.240540   
 351  	20.5279   	63.593689   
 352  	20.5865   	60.934261   
 353  	20.6452   	59.712463   
 354  	20.7038   	57.412415   
 355  	20.7625   	55.687439   
 356  	20.8211   	53.962463   
 357  	20.8798   	52.453064   
 358  	20.9384   	50.296814   
 359  	20.9971   	49.506165   
 360  	21.0557   	48.284363   
 361  	21.1144   	47.134335   
 362  	21.1730   	46.631165   
 363  	21.2317   	44.331238   
 364  	21.2903   	41.887390   
 365  	21.3490   	39.946838   
 366  	21.4076   	38.653015   
 367  	21.4663   	35.993713   
 368  	21.5249   	34.053040   
 369  	21.5836   	32.687439   
 370  	21.6422   	30.028076   
 371  	21.7009   	27.799929   
 372  	21.7595   	25.931213   
 373  	21.8182   	23.199951   
 374  	21.8768   	21.546814   
 375  	21.9355   	18.887451   
 376  	21.9941   	17.162415   
 377  	22.0528   	15.293701   
 378  	22.1114   	12.346802   
 379  	22.1701   	11.268677   
 380  	22.2287   	8.681213    
 381  	22.2874   	7.674927    
 382  	22.3460   	6.524963    
 383  	22.4047   	4.799927    
 384  	22.4633   	3.937439    
 385  	22.5220   	2.140564    
 386  	22.5806   	1.637451    
 387  	22.6393   	0.846802    
 388  	22.6979   	-1.093811   
 389  	22.7566   	-3.106323   
 390  	22.8152   	-4.759460   
 391  	22.8739   	-5.262573   
 392  	22.9326   	-6.484436   
 393  	22.9912   	-8.496948   
 394  	23.0499   	-9.359436   
 395  	23.1085   	-10.940674  
 396  	23.1672   	-12.090698  
 397  	23.2258   	-12.593811  
 398  	23.2845   	-13.887573  
 399  	23.3431   	-15.325073  
 400  	23.4018   	-16.187561  
 401  	23.4604   	-18.128174  
 402  	23.5191   	-18.775085  
 403  	23.5777   	-21.218811  
 404  	23.6364   	-21.865662  
 405  	23.6950   	-22.800047  
 406  	23.7537   	-24.381287  
 407  	23.8123   	-25.603210  
 408  	23.8710   	-27.040710  
 409  	23.9296   	-28.046936  
 410  	23.9883   	-28.046936  
 411  	24.0469   	-30.131287  
 412  	24.1056   	-30.562561  
 413  	24.1642   	-30.921936  
 414  	24.2229   	-30.562561  
 415  	24.2815   	-30.490660  
 416  	24.3402   	-31.065674  
 417  	24.3988   	-31.353210  
 418  	24.4575   	-32.431335  
 419  	24.5161   	-32.575073  
 420  	24.5748   	-32.503174  
 421  	24.6334   	-32.359436  
 422  	24.6921   	-33.078186  
 423  	24.7507   	-33.653198  
 424  	24.8094   	-33.653198  
 425  	24.8680   	-34.515686  
 426  	24.9267   	-35.378174  
 427  	24.9853   	-35.809448  
 428  	25.0440   	-35.737549  
 429  	25.1026   	-36.671936  
 430  	25.1613   	-36.815674  
 431  	25.2199   	-36.887573  
 432  	25.2786   	-36.815674  
 433  	25.3372   	-37.893799  
 434  	25.3959   	-38.756287  
 435  	25.4545   	-38.684448  
 436  	25.5132   	-38.396912  
 437  	25.5718   	-37.965698  
 438  	25.6305   	-37.606323  
 439  	25.6891   	-37.893799  
 440  	25.7478   	-36.815674  
 441  	25.8065   	-36.815674  
 442  	25.8651   	-35.521912  
 443  	25.9238   	-33.653198  
 444  	25.9824   	-31.568787  
 445  	26.0411   	-31.425049  
 446  	26.0997   	-29.340698  
 447  	26.1584   	-29.053162  
 448  	26.2170   	-26.753174  
 449  	26.2757   	-11.875061  
 450  	26.3343   	5.662415    
 451  	26.3930   	21.906189   
 452  	26.4516   	36.209290   
 453  	26.5103   	45.840515   
 454  	26.5689   	54.393734   
 455  	26.6276   	61.509335   
 456  	26.6862   	67.043640   
 457  	26.7449   	70.349915   
 458  	26.8035   	73.584290   
 459  	26.8622   	76.459290   
 460  	26.9208   	78.687439   
 461  	26.9795   	79.621765   
 462  	27.0381   	81.418640   
 463  	27.0968   	81.778015   
 464  	27.1554   	82.353088   
 465  	27.2141   	85.228088   
 466  	27.2727   	85.659363   
 467  	27.3314   	85.803040   
 468  	27.3900   	86.665588   
 469  	27.4487   	87.096863   
 470  	27.5073   	86.737488   
 471  	27.5660   	86.521790   
 472  	27.6246   	87.096863   
 473  	27.6833   	88.174988   
 474  	27.7419   	88.390564   
 475  	27.8006   	89.828064   
 476  	27.8592   	88.749939   
 477  	27.9179   	88.965515   
 478  	27.9765   	89.684265   
 479  	28.0352   	90.331245   
 480  	28.0938   	90.906189   
 481  	28.1525   	91.265564   
 482  	28.2111   	91.912415   
 483  	28.2698   	92.343681   
 484  	28.3284   	93.206238   
 485  	28.3871   	92.774963   
 486  	28.4457   	92.918640   
 487  	28.5044   	92.128113   
 488  	28.5630   	93.349915   
 489  	28.6217   	93.493713   
 490  	28.6804   	93.421814   
 491  	28.7390   	95.146797   
 492  	28.7977   	95.793633   
 493  	28.8563   	96.368706   
 494  	28.9150   	97.446838   
 495  	28.9736   	98.381157   
 496  	29.0323   	98.956230   
 497  	29.0909   	101.184258  
 498  	29.1496   	113.834297  
 499  	29.2082   	122.459282  
 500  	29.2669   	126.412407  
 501  	29.3255   	126.053040  
 502  	29.3842   	125.046806  
 503  	29.4428   	123.249939  
 504  	29.5015   	121.237488  
 505  	29.5601   	118.506172  
 506  	29.6188   	116.565613  
 507  	29.6774   	113.546814  
 508  	29.7361   	111.821838  
 509  	29.7947   	109.665581  
 510  	29.8534   	108.299980  
 511  	29.9120   	106.287415  
 512  	29.9707   	105.209297  
 513  	30.0293   	104.059265  
 514  	30.0880   	101.831238  
 515  	30.1466   	101.903023  
 516  	30.2053   	101.112488  
 517  	30.2639   	100.393745  
 518  	30.3226   	99.746758   
 519  	30.3812   	99.459290   
 520  	30.4399   	99.531189   
 521  	30.4985   	100.178040  
 522  	30.5572   	100.321831  
 523  	30.6158   	99.315613   
 524  	30.6745   	99.746758   
 525  	30.7331   	99.674995   
 526  	30.7918   	98.884338   
 527  	30.8504   	99.387390   
 528  	30.9091   	99.746758   
 529  	30.9677   	98.596863   
 530  	31.0264   	98.596863   
 531  	31.0850   	98.237480   
 532  	31.1437   	97.949890   
 533  	31.2023   	98.237480   
 534  	31.2610   	98.453072   
 535  	31.3196   	98.524963   
 536  	31.3783   	99.099907   
 537  	31.4370   	98.093689   
 538  	31.4956   	98.021790   
 539  	31.5543   	97.446838   
 540  	31.6129   	96.224915   
 541  	31.6716   	95.793633   
 542  	31.7302   	96.296814   
 543  	31.7889   	96.440613   
 544  	31.8475   	96.799988   
 545  	31.9062   	96.153015   
 546  	31.9648   	94.931206   
 547  	32.0235   	94.859314   
 548  	32.0821   	95.218689   
 549  	32.1408   	95.146797   
 550  	32.1994   	95.506165   
 551  	32.2581   	95.865547   
 552  	32.3167   	96.512383   
 553  	32.3754   	95.793633   
 554  	32.4340   	96.368706   
 555  	32.4927   	95.362488   
 556  	32.5513   	94.787415   
 557  	32.6100   	95.506165   
 558  	32.6686   	95.218689   
 559  	32.7273   	95.218689   
 560  	32.7859   	94.140564   
 561  	32.8446   	94.931206   
 562  	32.9032   	94.068665   
 563  	32.9619   	93.853088   
 564  	33.0205   	93.278015   
 565  	33.0792   	93.278015   
 566  	33.1378   	93.996765   
 567  	33.1965   	94.356140   
 568  	33.2551   	94.284355   
 569  	33.3138   	95.003120   
 570  	33.3724   	95.074883   
 571  	33.4311   	93.853088   
 572  	33.4897   	92.990540   
 573  	33.5484   	91.912415   
 574  	33.6070   	92.918640   
 575  	33.6657   	92.703064   
 576  	33.7243   	91.912415   
 577  	33.7830   	91.624939   
 578  	33.8416   	91.840508   
 579  	33.9003   	91.121758   
 580  	33.9589   	91.768738   
 581  	34.0176   	92.056213   
 582  	34.0762   	91.265564   
 583  	34.1349   	90.618713   
 584  	34.1935   	91.624939   
 585  	34.2522   	89.899963   
 586  	34.3109   	89.037415   
 587  	34.3695   	88.390564   
 588  	34.4282   	88.606140   
 589  	34.4868   	89.324890   
 590  	34.5455   	89.899963   
 591  	34.6041   	89.828064   
 592  	34.6628   	90.906189   
 593  	34.7214   	90.906189   
 594  	34.7801   	91.337463   
 595  	34.8387   	91.912415   
 596  	34.8974   	91.265564   
 597  	34.9560   	91.696831   
 598  	35.0147   	91.481140   
 599  	35.0733   	91.768738   
 600  	35.1320   	92.128113   
 601  	35.1906   	91.984314   
 602  	35.2493   	91.337463   
 603  	35.3079   	92.056213   
 604  	35.3666   	91.481140   
 605  	35.4252   	91.696831   
 606  	35.4839   	92.056213   
 607  	35.5425   	92.056213   
 608  	35.6012   	92.703064   
 609  	35.6598   	93.062431   
 610  	35.7185   	91.121758   
 611  	35.7771   	90.978081   
 612  	35.8358   	90.834290   
 613  	35.8944   	91.265564   
 614  	35.9531   	91.049995   
 615  	36.0117   	91.265564   
 616  	36.0704   	92.631165   
 617  	36.1290   	92.631165   
 618  	36.1877   	92.271790   
 619  	36.2463   	91.840508   
 620  	36.3050   	91.696831   
 621  	36.3636   	91.481140   
 622  	36.4223   	92.271790   
 623  	36.4809   	91.193672   
 624  	36.5396   	90.546814   
 625  	36.5982   	90.043640   
 626  	36.6569   	90.403008   
 627  	36.7155   	89.684265   
 628  	36.7742   	88.390564   
 629  	36.8328   	88.103088   
 630  	36.8915   	87.743713   
 631  	36.9501   	86.881165   
 632  	37.0088   	87.096863   
 633  	37.0674   	86.378113   
 634  	37.1261   	86.018738   
 635  	37.1848   	84.653015   
 636  	37.2434   	84.149963   
 637  	37.3021   	83.646790   
 638  	37.3607   	82.424988   
 639  	37.4194   	81.418640   
 640  	37.4780   	80.628113   
 641  	37.5367   	80.268738   
 642  	37.5953   	78.974915   
 643  	37.6540   	78.112488   
 644  	37.7126   	77.681213   
 645  	37.7713   	76.674988   
 646  	37.8299   	75.596863   
 647  	37.8886   	74.949890   
 648  	37.9472   	74.159363   
 649  	38.0059   	73.368713   
 650  	38.0645   	71.643738   
 651  	38.1232   	70.781189   
 652  	38.1818   	70.421814   
 653  	38.2405   	68.481140   
 654  	38.2991   	67.403015   
 655  	38.3578   	66.684265   
 656  	38.4164   	64.671814   
 657  	38.4751   	63.881161   
 658  	38.5337   	62.371765   
 659  	38.5924   	60.646790   
 660  	38.6510   	59.496765   
 661  	38.7097   	56.837460   
 662  	38.7683   	55.759338   
 663  	38.8270   	54.393734   
 664  	38.8856   	52.740540   
 665  	38.9443   	51.518738   
 666  	39.0029   	50.871765   
 667  	39.0616   	50.224911   
 668  	39.1202   	48.571838   
 669  	39.1789   	46.415588   
 670  	39.2375   	45.481140   
 671  	39.2962   	44.331238   
 672  	39.3548   	42.821838   
 673  	39.4135   	40.737488   
 674  	39.4721   	39.299988   
 675  	39.5308   	36.784363   
 676  	39.5894   	34.196838   
 677  	39.6481   	32.543701   
 678  	39.7067   	29.596802   
 679  	39.7654   	27.656189   
 680  	39.8240   	26.003052   
 681  	39.8827   	24.349915   
 682  	39.9413   	22.193665   
 683  	40.0000   	19.462463   
 684  	40.0587   	17.665588   
 685  	40.1173   	16.299927   
 686  	40.1760   	13.999939   
 687  	40.2346   	12.490540   
 688  	40.2933   	10.406189   
 689  	40.3519   	8.321838    
 690  	40.4106   	7.890563    
 691  	40.4692   	6.093688    
 692  	40.5279   	5.374939    
 693  	40.5865   	4.081177    
 694  	40.6452   	2.356201    
 695  	40.7038   	0.056213    
 696  	40.7625   	-0.806335   
 697  	40.8211   	-1.740662   
 698  	40.8798   	-2.890686   
 699  	40.9384   	-4.471924   
 700  	40.9971   	-5.118835   
 701  	41.0557   	-7.203186   
 702  	41.1144   	-7.203186   
 703  	41.1730   	-8.712585   
 704  	41.2317   	-9.359436   
 705  	41.2903   	-10.796936  
 706  	41.3490   	-12.737549  
 707  	41.4076   	-14.175050  
 708  	41.4663   	-14.893799  
 709  	41.5249   	-16.043823  
 710  	41.5836   	-18.056335  
 711  	41.6422   	-19.493835  
 712  	41.7009   	-21.146912  
 713  	41.7595   	-21.937561  
 714  	41.8182   	-23.015686  
 715  	41.8768   	-23.878174  
 716  	41.9355   	-24.453184  
 717  	41.9941   	-25.890686  
 718  	42.0528   	-27.543823  
 719  	42.1114   	-28.046936  
 720  	42.1701   	-28.909424  
 721  	42.2287   	-29.053162  
 722  	42.2874   	-30.059448  
 723  	42.3460   	-31.065674  
 724  	42.4047   	-31.496948  
 725  	42.4633   	-31.712585  
 726  	42.5220   	-32.143799  
 727  	42.5806   	-32.646912  
 728  	42.6393   	-32.718811  
 729  	42.6979   	-33.150085  
 730  	42.7566   	-34.156311  
 731  	42.8152   	-35.378174  
 732  	42.8739   	-34.587585  
 733  	42.9326   	-36.096924  
 734  	42.9912   	-37.103210  
 735  	43.0499   	-37.893799  
 736  	43.1085   	-38.181335  
 737  	43.1672   	-38.181335  
 738  	43.2258   	-39.187561  
 739  	43.2845   	-39.690674  
 740  	43.3431   	-39.403198  
 741  	43.4018   	-38.900085  
 742  	43.4604   	-39.259460  
 743  	43.5191   	-39.834412  
 744  	43.5777   	-39.259460  
 745  	43.6364   	-39.187561  
 746  	43.6950   	-40.768799  
 747  	43.7537   	-39.546936  
 748  	43.8123   	-40.481323  
 749  	43.8710   	-41.056335  
 750  	43.9296   	-41.128174  
 751  	43.9883   	-40.768799  
 752  	44.0469   	-40.050049  
 753  	44.1056   	-40.768799  
 754  	44.1642   	-40.481323  
 755  	44.2229   	-40.984436  
 756  	44.2815   	-41.487549  
 757  	44.3402   	-41.703186  
 758  	44.3988   	-42.637573  
 759  	44.4575   	-41.631287  
 760  	44.5161   	-42.278198  
 761  	44.5748   	-41.846924  
 762  	44.6334   	-42.637573  
 763  	44.6921   	-42.565674  
 764  	44.7507   	-42.062561  
 765  	44.8094   	-42.421936  
 766  	44.8680   	-41.990662  
 767  	44.9267   	-41.271912  
 768  	44.9853   	-41.200073  
 769  	45.0440   	-40.912537  
 770  	45.1026   	-41.846924  
 771  	45.1613   	-41.703186  
 772  	45.2199   	-42.134460  
 773  	45.2786   	-42.493835  
 774  	45.3372   	-42.062561  
 775  	45.3959   	-42.565674  
 776  	45.4545   	-42.637573  
 777  	45.5132   	-42.350037  
 778  	45.5718   	-41.271912  
 779  	45.6305   	-41.631287  
 780  	45.6891   	-41.128174  
 781  	45.7478   	-41.200073  
 782  	45.8065   	-42.350037  
 783  	45.8651   	-42.350037  
 784  	45.9238   	-41.343811  
 785  	45.9824   	-41.271912  
 786  	46.0411   	-41.415710  
 787  	46.0997   	-42.134460  
 788  	46.1584   	-42.206299  
 789  	46.2170   	-41.918823  
 790  	46.2757   	-41.775085  
 791  	46.3343   	-41.631287  
 792  	46.3930   	-40.481323  
 793  	46.4516   	-40.409424  
 794  	46.5103   	-41.200073  
 795  	46.5689   	-42.062561  
 796  	46.6276   	-42.134460  
 797  	46.6862   	-42.278198  
 798  	46.7449   	-41.846924  
 799  	46.8035   	-41.846924  
 800  	46.8622   	-41.271912  
 801  	46.9208   	-40.553162  
 802  	46.9795   	-40.696960  
 803  	47.0381   	-38.325073  
 804  	47.0968   	-38.325073  
 805  	47.1554   	-34.156311  
 806  	47.2141   	-25.818785  
 807  	47.2727   	-19.278198  
 808  	47.3314   	-15.181334  
 809  	47.3900   	-14.893799  
 810  	47.4487   	-16.475037  
 811  	47.5073   	-18.846924  
 812  	47.5660   	-19.853210  
 813  	47.6246   	-21.506287  
 814  	47.6833   	-23.159426  
 815  	47.7419   	-25.603210  
 816  	47.8006   	-26.896912  
 817  	47.8592   	-28.765684  
 818  	47.9179   	-30.275085  
 819  	47.9765   	-31.137573  
 820  	48.0352   	-32.790710  
 821  	48.0938   	-33.868835  
 822  	48.1525   	-34.803162  
 823  	48.2111   	-36.600037  
 824  	48.2698   	-37.246948  
 825  	48.3284   	-36.743835  
 826  	48.3871   	-37.390686  
 827  	48.4457   	-37.678162  
 828  	48.5044   	-36.815674  
 829  	48.5630   	-37.246948  
 830  	48.6217   	-38.396912  
 831  	48.6804   	-38.828186  
 832  	48.7390   	-39.115662  
 833  	48.7977   	-38.900085  
 834  	48.8563   	-38.612549  
 835  	48.9150   	-38.181335  
 836  	48.9736   	-38.900085  
 837  	49.0323   	-39.187561  
 838  	49.0909   	-39.043823  
 839  	49.1496   	-40.265686  
 840  	49.2082   	-39.906311  
 841  	49.2669   	-40.625061  
 842  	49.3255   	-40.193787  
 843  	49.3842   	-40.625061  
 844  	49.4428   	-40.696960  
 845  	49.5015   	-39.690674  
 846  	49.5601   	-40.696960  
 847  	49.6188   	-40.193787  
 848  	49.6774   	-40.696960  
 849  	49.7361   	-40.768799  
 850  	49.7947   	-41.415710  
 851  	49.8534   	-40.984436  
 852  	49.9120   	-41.056335  
 853  	49.9707   	-40.193787  
 854  	50.0293   	-41.056335  
 855  	50.0880   	-41.200073  
 856  	50.1466   	-40.840698  
 857  	50.2053   	-42.206299  
 858  	50.2639   	-41.990662  
 859  	50.3226   	-42.637573  
 860  	50.3812   	-42.925049  
 861  	50.4399   	-43.140686  
 862  	50.4985   	-42.709412  
 863  	50.5572   	-42.709412  
 864  	50.6158   	-41.846924  
 865  	50.6745   	-41.990662  
 866  	50.7331   	-41.846924  
 867  	50.7918   	-41.559448  
 868  	50.8504   	-41.918823  
 869  	50.9091   	-41.775085  
 870  	50.9677   	-42.709412  
 871  	51.0264   	-42.206299  
 872  	51.0850   	-42.996948  
 873  	51.1437   	-42.637573  
 874  	51.2023   	-43.284424  
 875  	51.2610   	-42.565674  
 876  	51.3196   	-42.709412  
 877  	51.3783   	-41.631287  
 878  	51.4370   	-42.062561  
 879  	51.4956   	-43.571960  
 880  	51.5543   	-44.218811  
 881  	51.6129   	-43.571960  
 882  	51.6716   	-44.075073  
 883  	51.7302   	-44.506287  
 884  	51.7889   	-44.578186  
 885  	51.8475   	-42.925049  
 886  	51.9062   	-44.146912  
 887  	51.9648   	-44.578186  
 888  	52.0235   	-43.356323  
 889  	52.0821   	-43.356323  
 890  	52.1408   	-42.996948  
 891  	52.1994   	-42.709412  
 892  	52.2581   	-42.493835  
 893  	52.3167   	-42.565674  
 894  	52.3754   	-43.140686  
 895  	52.4340   	-43.140686  
 896  	52.4927   	-43.068787  
 897  	52.5513   	-43.571960  
 898  	52.6100   	-43.859436  
 899  	52.6686   	-42.996948  
 900  	52.7273   	-43.859436  
 901  	52.7859   	-43.931335  
 902  	52.8446   	-43.787537  
 903  	52.9032   	-44.218811  
 904  	52.9619   	-44.290710  
 905  	53.0205   	-45.584408  
 906  	53.0792   	-44.721924  
 907  	53.1378   	-43.787537  
 908  	53.1965   	-44.146912  
 909  	53.2551   	-45.153194  
 910  	53.3138   	-44.578186  
 911  	53.3724   	-44.218811  
 912  	53.4311   	-43.356323  
 913  	53.4897   	-42.996948  
 914  	53.5484   	-42.637573  
 915  	53.6070   	-43.140686  
 916  	53.6657   	-42.996948  
 917  	53.7243   	-44.075073  
 918  	53.7830   	-43.571960  
 919  	53.8416   	-43.859436  
 920  	53.9003   	-43.715698  
 921  	53.9589   	-44.218811  
 922  	54.0176   	-44.650085  
 923  	54.0762   	-45.153194  
 924  	54.1349   	-44.434448  
 925  	54.1935   	-44.146912  
 926  	54.2522   	-44.146912  
 927  	54.3109   	-44.937561  
 928  	54.3695   	-43.859436  
 929  	54.4282   	-43.859436  
 930  	54.4868   	-43.715698  
 931  	54.5455   	-43.931335  
 932  	54.6041   	-44.003174  
 933  	54.6628   	-44.075073  
 934  	54.7214   	-44.146912  
 935  	54.7801   	-43.859436  
 936  	54.8387   	-43.643799  
 937  	54.8974   	-43.787537  
 938  	54.9560   	-43.715698  
 939  	55.0147   	-43.859436  
 940  	55.0733   	-43.715698  
 941  	55.1320   	-44.075073  
 942  	55.1906   	-44.003174  
 943  	55.2493   	-44.218811  
 944  	55.3079   	-44.578186  
 945  	55.3666   	-44.865662  
 946  	55.4252   	-45.081299  
 947  	55.4839   	-44.793823  
 948  	55.5425   	-45.225033  
 949  	55.6012   	-45.368835  
 950  	55.6598   	-46.159424  
 951  	55.7185   	-45.871952  
 952  	55.7771   	-44.937561  
 953  	55.8358   	-44.075073  
 954  	55.8944   	-43.643799  
 955  	55.9531   	-44.362549  
 956  	56.0117   	-44.937561  
 957  	56.0704   	-44.578186  
 958  	56.1290   	-43.715698  
 959  	56.1877   	-44.721924  
 960  	56.2463   	-45.009460  
 961  	56.3050   	-43.931335  
 962  	56.3636   	-44.506287  
 963  	56.4223   	-43.787537  
 964  	56.4809   	-44.218811  
 965  	56.5396   	-44.650085  
 966  	56.5982   	-45.081299  
 967  	56.6569   	-45.368835  
 968  	56.7155   	-44.506287  
 969  	56.7742   	-44.434448  
 970  	56.8328   	-44.003174  
 971  	56.8915   	-44.075073  
 972  	56.9501   	-44.290710  
 973  	57.0088   	-44.937561  
 974  	57.0674   	-44.290710  
 975  	57.1261   	-44.218811  
 976  	57.1848   	-44.290710  
 977  	57.2434   	-44.362549  
 978  	57.3021   	-44.650085  
 979  	57.3607   	-44.650085  
 980  	57.4194   	-44.721924  
 981  	57.4780   	-44.362549  
 982  	57.5367   	-44.290710  
 983  	57.5953   	-44.434448  
 984  	57.6540   	-45.296936  
 985  	57.7126   	-45.800049  
 986  	57.7713   	-45.296936  
 987  	57.8299   	-44.290710  
 988  	57.8886   	-45.368835  
 989  	57.9472   	-46.159424  
 990  	58.0059   	-44.937561  
 991  	58.0645   	-45.081299  
 992  	58.1232   	-44.721924  
 993  	58.1818   	-44.218811  
 994  	58.2405   	-44.003174  
 995  	58.2991   	-43.212585  
 996  	58.3578   	-44.650085  
 997  	58.4164   	-43.356323  
 998  	58.4751   	-42.781311  
 999  	58.5337   	-43.643799  
 1000 	58.5924   	-42.493835  
 1001 	58.6510   	-43.859436  
 1002 	58.7097   	-43.356323  
 1003 	58.7683   	-43.428162  
 1004 	58.8270   	-43.931335  
 1005 	58.8856   	-43.212585  
 1006 	58.9443   	-43.931335  
 1007 	59.0029   	-43.715698  
 1008 	59.0616   	-44.865662  
 1009 	59.1202   	-43.931335  
 1010 	59.1789   	-44.290710  
 1011 	59.2375   	-44.290710  
 1012 	59.2962   	-44.578186  
 1013 	59.3548   	-44.578186  
 1014 	59.4135   	-44.003174  
 1015 	59.4721   	-44.146912  
 1016 	59.5308   	-44.075073  
 1017 	59.5894   	-43.571960  
 1018 	59.6481   	-43.428162  
 1019 	59.7067   	-43.931335  
 1020 	59.7654   	-42.925049  
 1021 	59.8240   	-43.500061  
 1022 	59.8827   	-43.571960  
 1023 	59.9413   	-43.715698  
 1024 	60.0000   	-44.362549  

