
      	X(nS)     	Ch1(mV)      


 1    	0.0000    	-19.387146  
 2    	0.0587    	-19.384338  
 3    	0.1173    	-19.367491  
 4    	0.1760    	-19.371399  
 5    	0.2346    	-19.394470  
 6    	0.2933    	-19.346130  
 7    	0.3519    	-19.335508  
 8    	0.4106    	-19.411314  
 9    	0.4692    	-19.446655  
 10   	0.5279    	-19.441589  
 11   	0.5865    	-19.409056  
 12   	0.6452    	-19.410156  
 13   	0.7038    	-19.500000  
 14   	0.7625    	-19.495544  
 15   	0.8211    	-19.429260  
 16   	0.8798    	-19.391663  
 17   	0.9384    	-19.378174  
 18   	0.9971    	-19.398375  
 19   	1.0557    	-19.330442  
 20   	1.1144    	-19.283812  
 21   	1.1730    	-19.265318  
 22   	1.2317    	-19.213072  
 23   	1.2903    	-19.295593  
 24   	1.3490    	-19.231627  
 25   	1.4076    	-19.194519  
 26   	1.4663    	-19.167603  
 27   	1.5249    	-19.232178  
 28   	1.5836    	-19.276550  
 29   	1.6422    	-19.242247  
 30   	1.7009    	-19.280457  
 31   	1.7595    	-19.215879  
 32   	1.8182    	-19.284361  
 33   	1.8768    	-19.226561  
 34   	1.9355    	-19.293394  
 35   	1.9941    	-19.223204  
 36   	2.0528    	-19.236633  
 37   	2.1114    	-19.227112  
 38   	2.1701    	-19.268677  
 39   	2.2287    	-19.219788  
 40   	2.2874    	-19.230469  
 41   	2.3460    	-19.193420  
 42   	2.4047    	-19.214170  
 43   	2.4633    	-19.227112  
 44   	2.5220    	-19.256287  
 45   	2.5806    	-19.229919  
 46   	2.6393    	-19.288877  
 47   	2.6979    	-19.119322  
 48   	2.7566    	-19.163635  
 49   	2.8152    	-19.183289  
 50   	2.8739    	-19.256287  
 51   	2.9326    	-19.272583  
 52   	2.9912    	-19.300110  
 53   	3.0499    	-19.270935  
 54   	3.1085    	-19.256895  
 55   	3.1672    	-19.244505  
 56   	3.2258    	-19.221495  
 57   	3.2845    	-19.201294  
 58   	3.3431    	-19.190613  
 59   	3.4018    	-19.244505  
 60   	3.4604    	-19.252378  
 61   	3.5191    	-19.243408  
 62   	3.5777    	-19.226561  
 63   	3.6364    	-19.159729  
 64   	3.6950    	-19.114256  
 65   	3.7537    	-19.133362  
 66   	3.8123    	-18.990723  
 67   	3.8710    	-18.996336  
 68   	3.9296    	-18.900879  
 69   	3.9883    	-18.945251  
 70   	4.0469    	-18.738037  
 71   	4.1056    	-18.735229  
 72   	4.1642    	-18.733519  
 73   	4.2229    	-18.751524  
 74   	4.2815    	-18.735229  
 75   	4.3402    	-18.766663  
 76   	4.3988    	-18.709959  
 77   	4.4575    	-18.686340  
 78   	4.5161    	-18.701538  
 79   	4.5748    	-18.654907  
 80   	4.6334    	-18.665586  
 81   	4.6921    	-18.671753  
 82   	4.7507    	-18.593689  
 83   	4.8094    	-18.553282  
 84   	4.8680    	-18.519590  
 85   	4.9267    	-18.388733  
 86   	4.9853    	-18.264097  
 87   	5.0440    	-18.237122  
 88   	5.1026    	-18.137207  
 89   	5.1613    	-17.939514  
 90   	5.2199    	-17.836241  
 91   	5.2786    	-17.545349  
 92   	5.3372    	-17.165771  
 93   	5.3959    	-16.803040  
 94   	5.4545    	-16.140442  
 95   	5.5132    	-15.149902  
 96   	5.5718    	-13.715759  
 97   	5.6305    	-11.761107  
 98   	5.6891    	-9.996765   
 99   	5.7478    	-8.803528   
 100  	5.8065    	-8.023620   
 101  	5.8651    	-7.197021   
 102  	5.9238    	-4.852661   
 103  	5.9824    	11.319763   
 104  	6.0411    	38.711483   
 105  	6.0997    	58.246887   
 106  	6.1584    	73.250793   
 107  	6.2170    	83.817444   
 108  	6.2757    	91.559143   
 109  	6.3343    	97.651176   
 110  	6.3930    	101.848564  
 111  	6.4516    	104.842583  
 112  	6.5103    	107.609802  
 113  	6.5689    	109.762749  
 114  	6.6276    	111.330376  
 115  	6.6862    	112.378235  
 116  	6.7449    	113.374931  
 117  	6.8035    	114.168999  
 118  	6.8622    	114.759094  
 119  	6.9208    	115.396416  
 120  	6.9795    	116.025940  
 121  	7.0381    	116.439758  
 122  	7.0968    	116.924858  
 123  	7.1554    	117.011414  
 124  	7.2141    	117.267387  
 125  	7.2727    	117.786316  
 126  	7.3314    	118.134460  
 127  	7.3900    	118.547173  
 128  	7.4487    	118.990784  
 129  	7.5073    	119.494438  
 130  	7.5660    	119.648254  
 131  	7.6246    	119.736992  
 132  	7.6833    	119.925102  
 133  	7.7419    	120.163757  
 134  	7.8006    	120.293510  
 135  	7.8592    	120.471008  
 136  	7.9179    	120.706841  
 137  	7.9765    	120.771294  
 138  	8.0352    	120.871887  
 139  	8.0938    	120.907776  
 140  	8.1525    	120.938049  
 141  	8.2111    	121.085258  
 142  	8.2698    	121.147026  
 143  	8.3284    	121.201965  
 144  	8.3871    	121.456963  
 145  	8.4457    	121.427788  
 146  	8.5044    	121.534966  
 147  	8.5630    	121.479424  
 148  	8.6217    	121.209900  
 149  	8.6804    	121.039124  
 150  	8.7390    	120.821838  
 151  	8.7977    	120.770805  
 152  	8.8563    	120.670837  
 153  	8.9150    	120.642143  
 154  	8.9736    	120.549004  
 155  	9.0323    	120.702209  
 156  	9.0909    	120.723083  
 157  	9.1496    	120.808403  
 158  	9.2082    	120.861755  
 159  	9.2669    	120.922417  
 160  	9.3255    	121.104912  
 161  	9.3842    	121.287895  
 162  	9.4428    	121.368835  
 163  	9.5015    	121.400818  
 164  	9.5601    	121.469910  
 165  	9.6188    	121.488335  
 166  	9.6774    	121.473808  
 167  	9.7361    	121.500786  
 168  	9.7947    	121.481133  
 169  	9.8534    	121.482719  
 170  	9.9120    	121.641655  
 171  	9.9707    	121.862358  
 172  	10.0293   	121.919121  
 173  	10.0880   	121.996025  
 174  	10.1466   	122.040947  
 175  	10.2053   	122.053276  
 176  	10.2639   	122.109428  
 177  	10.3226   	121.994324  
 178  	10.3812   	122.048882  
 179  	10.4399   	121.979179  
 180  	10.4985   	122.011772  
 181  	10.5572   	121.976868  
 182  	10.6158   	121.978088  
 183  	10.6745   	121.987114  
 184  	10.7331   	121.939880  
 185  	10.7918   	121.769714  
 186  	10.8504   	121.774712  
 187  	10.9091   	121.723206  
 188  	10.9677   	121.733818  
 189  	11.0264   	121.670959  
 190  	11.0850   	121.561951  
 191  	11.1437   	121.431213  
 192  	11.2023   	121.360405  
 193  	11.2610   	121.357597  
 194  	11.3196   	121.432190  
 195  	11.3783   	121.404106  
 196  	11.4370   	121.507507  
 197  	11.4956   	121.488335  
 198  	11.5543   	121.486748  
 199  	11.6129   	121.393494  
 200  	11.6716   	121.252495  
 201  	11.7302   	121.167778  
 202  	11.7889   	121.116760  
 203  	11.8475   	121.172295  
 204  	11.9062   	121.319397  
 205  	11.9648   	121.299133  
 206  	12.0235   	121.348572  
 207  	12.0821   	121.283997  
 208  	12.1408   	121.171684  
 209  	12.1994   	121.089172  
 210  	12.2581   	120.938652  
 211  	12.3167   	120.757874  
 212  	12.3754   	120.655083  
 213  	12.4340   	120.459160  
 214  	12.4927   	120.294006  
 215  	12.5513   	120.132866  
 216  	12.6100   	120.023369  
 217  	12.6686   	119.842583  
 218  	12.7273   	119.812317  
 219  	12.7859   	119.636536  
 220  	12.8446   	119.531548  
 221  	12.9032   	119.341118  
 222  	12.9619   	119.243469  
 223  	13.0205   	119.030571  
 224  	13.0792   	118.724060  
 225  	13.1378   	118.557800  
 226  	13.1965   	118.433655  
 227  	13.2551   	118.262505  
 228  	13.3138   	118.023735  
 229  	13.3724   	117.786919  
 230  	13.4311   	117.618950  
 231  	13.4897   	117.381401  
 232  	13.5484   	117.276909  
 233  	13.6070   	117.276909  
 234  	13.6657   	117.251770  
 235  	13.7243   	117.179260  
 236  	13.7830   	117.116386  
 237  	13.8416   	117.044006  
 238  	13.9003   	116.924377  
 239  	13.9589   	116.808647  
 240  	14.0176   	116.766533  
 241  	14.0762   	116.838921  
 242  	14.1349   	116.933403  
 243  	14.1935   	117.014702  
 244  	14.2522   	116.996147  
 245  	14.3109   	117.146782  
 246  	14.3695   	117.183159  
 247  	14.4282   	117.196716  
 248  	14.4868   	117.228699  
 249  	14.5455   	117.240532  
 250  	14.6041   	117.215759  
 251  	14.6628   	117.256157  
 252  	14.7214   	117.105774  
 253  	14.7801   	117.041069  
 254  	14.8387   	117.004089  
 255  	14.8974   	117.036072  
 256  	14.9560   	117.199524  
 257  	15.0147   	117.233704  
 258  	15.0733   	117.426941  
 259  	15.1320   	117.563896  
 260  	15.1906   	117.563896  
 261  	15.2493   	117.543762  
 262  	15.3079   	117.611633  
 263  	15.3666   	117.576836  
 264  	15.4252   	117.474060  
 265  	15.4839   	117.467339  
 266  	15.5425   	117.450012  
 267  	15.6012   	117.338196  
 268  	15.6598   	117.287651  
 269  	15.7185   	117.175346  
 270  	15.7771   	117.103447  
 271  	15.8358   	116.906921  
 272  	15.8944   	116.827202  
 273  	15.9531   	116.804741  
 274  	16.0117   	116.905815  
 275  	16.0704   	116.727837  
 276  	16.1290   	116.702568  
 277  	16.1877   	116.674500  
 278  	16.2463   	116.518372  
 279  	16.3050   	116.222466  
 280  	16.3636   	115.964172  
 281  	16.4223   	115.557060  
 282  	16.4809   	115.225761  
 283  	16.5396   	114.722588  
 284  	16.5982   	114.136406  
 285  	16.6569   	113.435112  
 286  	16.7155   	112.702209  
 287  	16.7742   	111.746513  
 288  	16.8328   	110.883484  
 289  	16.8915   	109.941223  
 290  	16.9501   	108.923149  
 291  	17.0088   	107.945000  
 292  	17.0674   	106.841606  
 293  	17.1261   	105.860161  
 294  	17.1848   	104.825249  
 295  	17.2434   	103.626274  
 296  	17.3021   	102.410088  
 297  	17.3607   	101.349426  
 298  	17.4194   	100.390312  
 299  	17.4780   	99.411560   
 300  	17.5367   	98.574883   
 301  	17.5953   	97.733704   
 302  	17.6540   	96.785942   
 303  	17.7126   	95.724052   
 304  	17.7713   	94.556694   
 305  	17.8299   	93.383606   
 306  	17.8886   	92.086479   
 307  	17.9472   	90.659729   
 308  	18.0059   	89.214294   
 309  	18.0645   	87.675713   
 310  	18.1232   	86.030457   
 311  	18.1818   	84.470512   
 312  	18.2405   	82.782524   
 313  	18.2991   	81.281677   
 314  	18.3578   	79.766167   
 315  	18.4164   	78.037651   
 316  	18.4751   	76.455383   
 317  	18.5337   	74.948784   
 318  	18.5924   	73.456841   
 319  	18.6510   	72.074890   
 320  	18.7097   	70.733452   
 321  	18.7683   	69.302063   
 322  	18.8270   	67.897758   
 323  	18.8856   	66.402405   
 324  	18.9443   	64.823425   
 325  	19.0029   	63.134823   
 326  	19.0616   	61.236385   
 327  	19.1202   	59.162655   
 328  	19.1789   	57.209774   
 329  	19.2375   	55.110165   
 330  	19.2962   	52.983089   
 331  	19.3548   	50.902161   
 332  	19.4135   	48.740292   
 333  	19.4721   	46.624447   
 334  	19.5308   	44.452454   
 335  	19.5894   	42.214172   
 336  	19.6481   	39.860287   
 337  	19.7067   	37.592831   
 338  	19.7654   	35.397339   
 339  	19.8240   	32.898006   
 340  	19.8827   	30.927061   
 341  	19.9413   	29.113890   
 342  	20.0000   	27.543272   
 343  	20.0587   	26.163086   
 344  	20.1173   	24.789610   
 345  	20.1760   	23.391966   
 346  	20.2346   	22.142578   
 347  	20.2933   	20.944822   
 348  	20.3519   	19.676331   
 349  	20.4106   	18.509521   
 350  	20.4692   	17.360657   
 351  	20.5279   	16.183653   
 352  	20.5865   	15.096007   
 353  	20.6452   	13.776427   
 354  	20.7038   	12.757812   
 355  	20.7625   	11.788086   
 356  	20.8211   	10.790222   
 357  	20.8798   	9.765442    
 358  	20.9384   	8.700255    
 359  	20.9971   	7.576660    
 360  	21.0557   	6.365417    
 361  	21.1144   	5.108215    
 362  	21.1730   	3.780761    
 363  	21.2317   	2.406677    
 364  	21.2903   	1.111267    
 365  	21.3490   	-0.167908   
 366  	21.4076   	-1.426819   
 367  	21.4663   	-2.679016   
 368  	21.5249   	-3.972229   
 369  	21.5836   	-5.155334   
 370  	21.6422   	-6.258179   
 371  	21.7009   	-7.402526   
 372  	21.7595   	-8.341980   
 373  	21.8182   	-9.321838   
 374  	21.8768   	-9.976563   
 375  	21.9355   	-10.549316  
 376  	21.9941   	-11.013123  
 377  	22.0528   	-11.441039  
 378  	22.1114   	-11.739197  
 379  	22.1701   	-11.997498  
 380  	22.2287   	-12.263672  
 381  	22.2874   	-12.496154  
 382  	22.3460   	-12.803833  
 383  	22.4047   	-13.219909  
 384  	22.4633   	-13.646118  
 385  	22.5220   	-14.175658  
 386  	22.5806   	-14.744445  
 387  	22.6393   	-15.326782  
 388  	22.6979   	-15.893371  
 389  	22.7566   	-16.414978  
 390  	22.8152   	-16.784485  
 391  	22.8739   	-17.195494  
 392  	22.9326   	-17.522888  
 393  	22.9912   	-17.883362  
 394  	23.0499   	-18.175354  
 395  	23.1085   	-18.413450  
 396  	23.1672   	-18.598755  
 397  	23.2258   	-18.825623  
 398  	23.2845   	-18.963194  
 399  	23.3431   	-19.047424  
 400  	23.4018   	-19.205748  
 401  	23.4604   	-19.364683  
 402  	23.5191   	-19.448914  
 403  	23.5777   	-19.553894  
 404  	23.6364   	-19.643736  
 405  	23.6950   	-19.675232  
 406  	23.7537   	-19.823425  
 407  	23.8123   	-19.822876  
 408  	23.8710   	-19.956541  
 409  	23.9296   	-20.004272  
 410  	23.9883   	-20.054810  
 411  	24.0469   	-20.084532  
 412  	24.1056   	-20.073914  
 413  	24.1642   	-20.141844  
 414  	24.2229   	-20.219908  
 415  	24.2815   	-20.314758  
 416  	24.3402   	-20.329405  
 417  	24.3988   	-20.447327  
 418  	24.4575   	-20.419800  
 419  	24.5161   	-20.506285  
 420  	24.5748   	-20.548950  
 421  	24.6334   	-20.514709  
 422  	24.6921   	-20.646057  
 423  	24.7507   	-20.767944  
 424  	24.8094   	-20.813965  
 425  	24.8680   	-20.770752  
 426  	24.9267   	-20.766785  
 427  	24.9853   	-20.802734  
 428  	25.0440   	-20.815125  
 429  	25.1026   	-20.850464  
 430  	25.1613   	-20.757813  
 431  	25.2199   	-20.744322  
 432  	25.2786   	-20.815125  
 433  	25.3372   	-20.914490  
 434  	25.3959   	-20.947081  
 435  	25.4545   	-20.822935  
 436  	25.5132   	-20.883606  
 437  	25.5718   	-20.889769  
 438  	25.6305   	-20.870667  
 439  	25.6891   	-20.817932  
 440  	25.7478   	-20.856627  
 441  	25.8065   	-20.796019  
 442  	25.8651   	-20.749388  
 443  	25.9238   	-20.759520  
 444  	25.9824   	-20.662354  
 445  	26.0411   	-20.704468  
 446  	26.0997   	-20.646666  
 447  	26.1584   	-20.649473  
 448  	26.2170   	-20.529844  
 449  	26.2757   	-20.424866  
 450  	26.3343   	-20.282225  
 451  	26.3930   	-20.085144  
 452  	26.4516   	-19.747070  
 453  	26.5103   	-19.247862  
 454  	26.5689   	-18.670105  
 455  	26.6276   	-17.874939  
 456  	26.6862   	-17.049498  
 457  	26.7449   	-16.183104  
 458  	26.8035   	-15.151549  
 459  	26.8622   	-12.199096  
 460  	26.9208   	0.754700    
 461  	26.9795   	8.043273    
 462  	27.0381   	11.424194   
 463  	27.0968   	11.251282   
 464  	27.1554   	9.629578    
 465  	27.2141   	7.332397    
 466  	27.2727   	4.858337    
 467  	27.3314   	2.253418    
 468  	27.3900   	-0.286926   
 469  	27.4487   	-2.468994   
 470  	27.5073   	-4.460754   
 471  	27.5660   	-6.356994   
 472  	27.6246   	-8.152770   
 473  	27.6833   	-9.618347   
 474  	27.7419   	-10.859313  
 475  	27.8006   	-11.899230  
 476  	27.8592   	-12.785338  
 477  	27.9179   	-13.596130  
 478  	27.9765   	-14.222229  
 479  	28.0352   	-14.727050  
 480  	28.0938   	-15.153808  
 481  	28.1525   	-15.604735  
 482  	28.2111   	-16.018005  
 483  	28.2698   	-16.377380  
 484  	28.3284   	-16.637390  
 485  	28.3871   	-16.789001  
 486  	28.4457   	-16.920349  
 487  	28.5044   	-17.059629  
 488  	28.5630   	-17.140501  
 489  	28.6217   	-17.257263  
 490  	28.6804   	-17.418457  
 491  	28.7390   	-17.562742  
 492  	28.7977   	-17.687437  
 493  	28.8563   	-17.859800  
 494  	28.9150   	-17.975464  
 495  	28.9736   	-18.094542  
 496  	29.0323   	-18.150696  
 497  	29.0909   	-18.205688  
 498  	29.1496   	-18.343262  
 499  	29.2082   	-18.540955  
 500  	29.2669   	-18.587523  
 501  	29.3255   	-18.631895  
 502  	29.3842   	-18.628540  
 503  	29.4428   	-18.739683  
 504  	29.5015   	-18.854797  
 505  	29.5601   	-18.919371  
 506  	29.6188   	-19.018250  
 507  	29.6774   	-18.995789  
 508  	29.7361   	-19.065367  
 509  	29.7947   	-19.193970  
 510  	29.8534   	-19.228819  
 511  	29.9120   	-19.274292  
 512  	29.9707   	-19.377014  
 513  	30.0293   	-19.370300  
 514  	30.0880   	-19.485962  
 515  	30.1466   	-19.515745  
 516  	30.2053   	-19.571899  
 517  	30.2639   	-19.528076  
 518  	30.3226   	-19.587036  
 519  	30.3812   	-19.561768  
 520  	30.4399   	-19.570738  
 521  	30.4985   	-19.555603  
 522  	30.5572   	-19.616272  
 523  	30.6158   	-19.540466  
 524  	30.6745   	-19.622984  
 525  	30.7331   	-19.584778  
 526  	30.7918   	-19.571350  
 527  	30.8504   	-19.579773  
 528  	30.9091   	-19.639282  
 529  	30.9677   	-19.662291  
 530  	31.0264   	-19.615660  
 531  	31.0850   	-19.624693  
 532  	31.1437   	-19.603333  
 533  	31.2023   	-19.599976  
 534  	31.2610   	-19.581970  
 535  	31.3196   	-19.680235  
 536  	31.3783   	-19.645447  
 537  	31.4370   	-19.708923  
 538  	31.4956   	-19.826843  
 539  	31.5543   	-19.773497  
 540  	31.6129   	-19.735840  
 541  	31.6716   	-19.775146  
 542  	31.7302   	-19.683043  
 543  	31.7889   	-19.670166  
 544  	31.8475   	-19.621277  
 545  	31.9062   	-19.707214  
 546  	31.9648   	-19.698790  
 547  	32.0235   	-19.628050  
 548  	32.0821   	-19.588743  
 549  	32.1408   	-19.584227  
 550  	32.1994   	-19.566284  
 551  	32.2581   	-19.569092  
 552  	32.3167   	-19.593201  
 553  	32.3754   	-19.603333  
 554  	32.4340   	-19.683655  
 555  	32.4927   	-19.747620  
 556  	32.5513   	-19.669615  
 557  	32.6100   	-19.774046  
 558  	32.6686   	-19.811646  
 559  	32.7273   	-19.850952  
 560  	32.7859   	-19.816162  
 561  	32.8446   	-19.906006  
 562  	32.9032   	-19.976196  
 563  	32.9619   	-19.918884  
 564  	33.0205   	-19.906006  
 565  	33.0792   	-19.913879  
 566  	33.1378   	-19.944151  
 567  	33.1965   	-19.931274  
 568  	33.2551   	-19.988525  
 569  	33.3138   	-19.945860  
 570  	33.3724   	-19.941956  
 571  	33.4311   	-19.876219  
 572  	33.4897   	-19.928467  
 573  	33.5484   	-19.961607  
 574  	33.6070   	-19.926208  
 575  	33.6657   	-19.932922  
 576  	33.7243   	-19.894226  
 577  	33.7830   	-19.843079  
 578  	33.8416   	-19.909361  
 579  	33.9003   	-19.825134  
 580  	33.9589   	-19.751587  
 581  	34.0176   	-19.801575  
 582  	34.0762   	-19.818420  
 583  	34.1349   	-19.886902  
 584  	34.1935   	-19.881285  
 585  	34.2522   	-19.873411  
 586  	34.3109   	-19.913879  
 587  	34.3695   	-19.903198  
 588  	34.4282   	-19.955992  
 589  	34.4868   	-19.937439  
 590  	34.5455   	-19.966614  
 591  	34.6041   	-19.967773  
 592  	34.6628   	-19.901489  
 593  	34.7214   	-19.948668  
 594  	34.7801   	-19.877928  
 595  	34.8387   	-19.890259  
 596  	34.8974   	-19.868958  
 597  	34.9560   	-19.913269  
 598  	35.0147   	-19.937439  
 599  	35.0733   	-19.955383  
 600  	35.1320   	-19.959349  
 601  	35.1906   	-19.932922  
 602  	35.2493   	-19.891418  
 603  	35.3079   	-19.856567  
 604  	35.3666   	-19.859924  
 605  	35.4252   	-19.985716  
 606  	35.4839   	-19.899841  
 607  	35.5425   	-19.966614  
 608  	35.6012   	-19.935728  
 609  	35.6598   	-19.960999  
 610  	35.7185   	-20.010986  
 611  	35.7771   	-20.000305  
 612  	35.8358   	-19.960999  
 613  	35.8944   	-19.982908  
 614  	35.9531   	-19.913269  
 615  	36.0117   	-19.715088  
 616  	36.0704   	-19.735840  
 617  	36.1290   	-19.793152  
 618  	36.1877   	-19.798155  
 619  	36.2463   	-19.767273  
 620  	36.3050   	-19.728577  
 621  	36.3636   	-19.818420  
 622  	36.4223   	-19.779663  
 623  	36.4809   	-19.785828  
 624  	36.5396   	-19.825684  
 625  	36.5982   	-19.850403  
 626  	36.6569   	-19.875120  
 627  	36.7155   	-19.818970  
 628  	36.7742   	-19.778503  
 629  	36.8328   	-19.738647  
 630  	36.8915   	-19.708923  
 631  	36.9501   	-19.777954  
 632  	37.0088   	-19.781921  
 633  	37.0674   	-19.757751  
 634  	37.1261   	-19.795347  
 635  	37.1848   	-19.753233  
 636  	37.2434   	-19.711121  
 637  	37.3021   	-19.739805  
 638  	37.3607   	-19.856567  
 639  	37.4194   	-19.878477  
 640  	37.4780   	-19.863892  
 641  	37.5367   	-19.898132  
 642  	37.5953   	-19.891418  
 643  	37.6540   	-19.835815  
 644  	37.7126   	-19.856018  
 645  	37.7713   	-19.894226  
 646  	37.8299   	-19.853210  
 647  	37.8886   	-19.850403  
 648  	37.9472   	-19.835815  
 649  	38.0059   	-19.864441  
 650  	38.0645   	-19.847595  
 651  	38.1232   	-19.816162  
 652  	38.1818   	-19.752136  
 653  	38.2405   	-19.757751  
 654  	38.2991   	-19.794798  
 655  	38.3578   	-19.769531  
 656  	38.4164   	-19.816711  
 657  	38.4751   	-19.777405  
 658  	38.5337   	-19.725157  
 659  	38.5924   	-19.766172  
 660  	38.6510   	-19.757751  
 661  	38.7097   	-19.766172  
 662  	38.7683   	-19.790894  
 663  	38.8270   	-19.720703  
 664  	38.8856   	-19.742613  
 665  	38.9443   	-19.751587  
 666  	39.0029   	-19.775146  
 667  	39.0616   	-19.724058  
 668  	39.1202   	-19.765623  
 669  	39.1789   	-19.772339  
 670  	39.2375   	-19.747620  
 671  	39.2962   	-19.695433  
 672  	39.3548   	-19.712280  
 673  	39.4135   	-19.790344  
 674  	39.4721   	-19.828491  
 675  	39.5308   	-19.820068  
 676  	39.5894   	-19.822327  
 677  	39.6481   	-19.720154  
 678  	39.7067   	-19.763914  
 679  	39.7654   	-19.791443  
 680  	39.8240   	-19.759460  
 681  	39.8827   	-19.802122  
 682  	39.9413   	-19.782471  
 683  	40.0000   	-19.689270  
 684  	40.0587   	-19.688658  
 685  	40.1173   	-19.662842  
 686  	40.1760   	-19.630859  
 687  	40.2346   	-19.672974  
 688  	40.2933   	-19.691465  
 689  	40.3519   	-19.708313  
 690  	40.4106   	-19.698240  
 691  	40.4692   	-19.708313  
 692  	40.5279   	-19.797056  
 693  	40.5865   	-19.742613  
 694  	40.6452   	-19.845886  
 695  	40.7038   	-19.818420  
 696  	40.7625   	-19.834105  
 697  	40.8211   	-19.831297  
 698  	40.8798   	-19.883543  
 699  	40.9384   	-19.854919  
 700  	40.9971   	-19.866150  
 701  	41.0557   	-19.777405  
 702  	41.1144   	-19.841978  
 703  	41.1730   	-19.857727  
 704  	41.2317   	-19.887451  
 705  	41.2903   	-19.870054  
 706  	41.3490   	-19.946959  
 707  	41.4076   	-19.937439  
 708  	41.4663   	-19.877928  
 709  	41.5249   	-19.914427  
 710  	41.5836   	-19.832458  
 711  	41.6422   	-19.840881  
 712  	41.7009   	-19.849302  
 713  	41.7595   	-19.806580  
 714  	41.8182   	-19.850952  
 715  	41.8768   	-19.747070  
 716  	41.9355   	-19.766722  
 717  	41.9941   	-19.725157  
 718  	42.0528   	-19.762817  
 719  	42.1114   	-19.740356  
 720  	42.1701   	-19.765076  
 721  	42.2287   	-19.782471  
 722  	42.2874   	-19.870054  
 723  	42.3460   	-19.857117  
 724  	42.4047   	-19.806580  
 725  	42.4633   	-19.876770  
 726  	42.5220   	-19.831846  
 727  	42.5806   	-19.853760  
 728  	42.6393   	-19.870054  
 729  	42.6979   	-19.866150  
 730  	42.7566   	-19.905457  
 731  	42.8152   	-19.898682  
 732  	42.8739   	-19.867249  
 733  	42.9326   	-19.877928  
 734  	42.9912   	-19.852661  
 735  	43.0499   	-19.841978  
 736  	43.1085   	-19.960449  
 737  	43.1672   	-19.898132  
 738  	43.2258   	-19.929565  
 739  	43.2845   	-19.976196  
 740  	43.3431   	-20.013792  
 741  	43.4018   	-20.003113  
 742  	43.4604   	-20.028381  
 743  	43.5191   	-20.069946  
 744  	43.5777   	-20.100279  
 745  	43.6364   	-20.097471  
 746  	43.6950   	-20.173828  
 747  	43.7537   	-20.128904  
 748  	43.8123   	-20.124451  
 749  	43.8710   	-20.104795  
 750  	43.9296   	-20.177185  
 751  	43.9883   	-20.200806  
 752  	44.0469   	-20.076111  
 753  	44.1056   	-20.177794  
 754  	44.1642   	-20.128904  
 755  	44.2229   	-20.112610  
 756  	44.2815   	-20.131712  
 757  	44.3402   	-20.086790  
 758  	44.3988   	-20.226074  
 759  	44.4575   	-20.250183  
 760  	44.5161   	-20.286133  
 761  	44.5748   	-20.397337  
 762  	44.6334   	-20.315916  
 763  	44.6921   	-20.350157  
 764  	44.7507   	-20.372070  
 765  	44.8094   	-20.383848  
 766  	44.8680   	-20.325989  
 767  	44.9267   	-20.390564  
 768  	44.9853   	-20.334412  
 769  	45.0440   	-20.287291  
 770  	45.1026   	-20.355223  
 771  	45.1613   	-20.350706  
 772  	45.2199   	-20.351257  
 773  	45.2786   	-20.417542  
 774  	45.3372   	-20.365295  
 775  	45.3959   	-20.410215  
 776  	45.4545   	-20.456299  
 777  	45.5132   	-20.395081  
 778  	45.5718   	-20.420347  
 779  	45.6305   	-20.455137  
 780  	45.6891   	-20.498411  
 781  	45.7478   	-20.457945  
 782  	45.8065   	-20.465820  
 783  	45.8651   	-20.506834  
 784  	45.9238   	-20.530394  
 785  	45.9824   	-20.498960  
 786  	46.0411   	-20.534363  
 787  	46.0997   	-20.487732  
 788  	46.1584   	-20.519165  
 789  	46.2170   	-20.486021  
 790  	46.2757   	-20.517517  
 791  	46.3343   	-20.503477  
 792  	46.3930   	-20.562439  
 793  	46.4516   	-20.489990  
 794  	46.5103   	-20.424255  
 795  	46.5689   	-20.411926  
 796  	46.6276   	-20.396179  
 797  	46.6862   	-20.437195  
 798  	46.7449   	-20.467527  
 799  	46.8035   	-20.403503  
 800  	46.8622   	-20.498960  
 801  	46.9208   	-20.539368  
 802  	46.9795   	-20.547241  
 803  	47.0381   	-20.519714  
 804  	47.0968   	-20.509644  
 805  	47.1554   	-20.531555  
 806  	47.2141   	-20.464170  
 807  	47.2727   	-20.381590  
 808  	47.3314   	-20.302429  
 809  	47.3900   	-20.214842  
 810  	47.4487   	-20.073303  
 811  	47.5073   	-19.842529  
 812  	47.5660   	-19.629150  
 813  	47.6246   	-19.299009  
 814  	47.6833   	-18.805969  
 815  	47.7419   	-18.656067  
 816  	47.8006   	-18.785215  
 817  	47.8592   	-18.967710  
 818  	47.9179   	-19.140074  
 819  	47.9765   	-19.309082  
 820  	48.0352   	-19.354551  
 821  	48.0938   	-19.363586  
 822  	48.1525   	-19.501709  
 823  	48.2111   	-19.623535  
 824  	48.2698   	-19.607849  
 825  	48.3284   	-19.616821  
 826  	48.3871   	-19.649963  
 827  	48.4457   	-19.666199  
 828  	48.5044   	-19.707214  
 829  	48.5630   	-19.765076  
 830  	48.6217   	-19.795347  
 831  	48.6804   	-19.870054  
 832  	48.7390   	-19.902649  
 833  	48.7977   	-19.972227  
 834  	48.8563   	-19.885193  
 835  	48.9150   	-19.940794  
 836  	48.9736   	-20.001465  
 837  	49.0323   	-20.053648  
 838  	49.0909   	-19.992491  
 839  	49.1496   	-20.003113  
 840  	49.2082   	-19.970581  
 841  	49.2669   	-20.017149  
 842  	49.3255   	-19.943052  
 843  	49.3842   	-19.936340  
 844  	49.4428   	-19.867796  
 845  	49.5015   	-19.891418  
 846  	49.5601   	-19.933533  
 847  	49.6188   	-19.973389  
 848  	49.6774   	-19.946409  
 849  	49.7361   	-19.988525  
 850  	49.7947   	-20.068296  
 851  	49.8534   	-20.072205  
 852  	49.9120   	-20.026182  
 853  	49.9707   	-20.048033  
 854  	50.0293   	-20.063780  
 855  	50.0880   	-20.074463  
 856  	50.1466   	-20.075012  
 857  	50.2053   	-20.140137  
 858  	50.2639   	-20.076721  
 859  	50.3226   	-19.994690  
 860  	50.3812   	-20.054260  
 861  	50.4399   	-20.122742  
 862  	50.4985   	-20.140686  
 863  	50.5572   	-20.133970  
 864  	50.6158   	-20.192383  
 865  	50.6745   	-20.188416  
 866  	50.7331   	-20.133970  
 867  	50.7918   	-20.127808  
 868  	50.8504   	-20.081177  
 869  	50.9091   	-20.137329  
 870  	50.9677   	-20.150269  
 871  	51.0264   	-20.165403  
 872  	51.0850   	-20.148010  
 873  	51.1437   	-20.167662  
 874  	51.2023   	-20.076111  
 875  	51.2610   	-20.008726  
 876  	51.3196   	-20.038513  
 877  	51.3783   	-19.986267  
 878  	51.4370   	-19.960449  
 879  	51.4956   	-19.944763  
 880  	51.5543   	-19.924500  
 881  	51.6129   	-19.929565  
 882  	51.6716   	-19.912169  
 883  	51.7302   	-19.908264  
 884  	51.7889   	-19.873411  
 885  	51.8475   	-19.815611  
 886  	51.9062   	-19.834654  
 887  	51.9648   	-19.852110  
 888  	52.0235   	-19.818970  
 889  	52.0821   	-19.785278  
 890  	52.1408   	-19.815002  
 891  	52.1994   	-19.931274  
 892  	52.2581   	-19.860535  
 893  	52.3167   	-19.880186  
 894  	52.3754   	-19.838621  
 895  	52.4340   	-19.952576  
 896  	52.4927   	-20.025574  
 897  	52.5513   	-20.014954  
 898  	52.6100   	-20.014341  
 899  	52.6686   	-20.064331  
 900  	52.7273   	-20.044678  
 901  	52.7859   	-20.060423  
 902  	52.8446   	-20.014954  
 903  	52.9032   	-20.075562  
 904  	52.9619   	-20.053648  
 905  	53.0205   	-20.076111  
 906  	53.0792   	-20.153076  
 907  	53.1378   	-20.119934  
 908  	53.1965   	-20.161499  
 909  	53.2551   	-20.095213  
 910  	53.3138   	-20.132263  
 911  	53.3724   	-20.179443  
 912  	53.4311   	-20.065489  
 913  	53.4897   	-20.083435  
 914  	53.5484   	-20.045225  
 915  	53.6070   	-20.096375  
 916  	53.6657   	-20.132874  
 917  	53.7243   	-20.129454  
 918  	53.7830   	-20.100279  
 919  	53.8416   	-20.116028  
 920  	53.9003   	-20.155884  
 921  	53.9589   	-20.153625  
 922  	54.0176   	-20.137878  
 923  	54.0762   	-20.149719  
 924  	54.1349   	-20.089598  
 925  	54.1935   	-20.117676  
 926  	54.2522   	-20.172178  
 927  	54.3109   	-20.187866  
 928  	54.3695   	-20.187317  
 929  	54.4282   	-20.065489  
 930  	54.4868   	-20.019957  
 931  	54.5455   	-20.015503  
 932  	54.6041   	-20.049194  
 933  	54.6628   	-20.023924  
 934  	54.7214   	-20.019407  
 935  	54.7801   	-19.959900  
 936  	54.8387   	-19.919493  
 937  	54.8974   	-19.828491  
 938  	54.9560   	-19.928467  
 939  	55.0147   	-19.883543  
 940  	55.0733   	-19.872314  
 941  	55.1320   	-19.934082  
 942  	55.1906   	-20.064331  
 943  	55.2493   	-20.005371  
 944  	55.3079   	-20.031189  
 945  	55.3666   	-19.909361  
 946  	55.4252   	-19.985716  
 947  	55.4839   	-19.904844  
 948  	55.5425   	-19.966614  
 949  	55.6012   	-19.945313  
 950  	55.6598   	-19.996948  
 951  	55.7185   	-20.036804  
 952  	55.7771   	-20.101379  
 953  	55.8358   	-20.051453  
 954  	55.8944   	-19.923401  
 955  	55.9531   	-19.989075  
 956  	56.0117   	-19.845886  
 957  	56.0704   	-19.751587  
 958  	56.1290   	-19.823425  
 959  	56.1877   	-19.848145  
 960  	56.2463   	-19.865538  
 961  	56.3050   	-19.838621  
 962  	56.3636   	-19.870054  
 963  	56.4223   	-19.822876  
 964  	56.4809   	-19.858826  
 965  	56.5396   	-19.893616  
 966  	56.5982   	-19.907103  
 967  	56.6569   	-19.838074  
 968  	56.7155   	-19.860535  
 969  	56.7742   	-19.742004  
 970  	56.8328   	-19.800413  
 971  	56.8915   	-19.876219  
 972  	56.9501   	-19.841429  
 973  	57.0088   	-19.903748  
 974  	57.0674   	-19.839170  
 975  	57.1261   	-19.853210  
 976  	57.1848   	-19.796509  
 977  	57.2434   	-19.787537  
 978  	57.3021   	-19.812195  
 979  	57.3607   	-19.783569  
 980  	57.4194   	-19.815002  
 981  	57.4780   	-19.816162  
 982  	57.5367   	-19.895325  
 983  	57.5953   	-19.856018  
 984  	57.6540   	-19.920593  
 985  	57.7126   	-19.808287  
 986  	57.7713   	-19.862730  
 987  	57.8299   	-19.845886  
 988  	57.8886   	-19.830200  
 989  	57.9472   	-19.811096  
 990  	58.0059   	-19.821228  
 991  	58.0645   	-19.814453  
 992  	58.1232   	-19.878477  
 993  	58.1818   	-19.862183  
 994  	58.2405   	-19.877928  
 995  	58.2991   	-19.780762  
 996  	58.3578   	-19.813354  
 997  	58.4164   	-19.817261  
 998  	58.4751   	-19.786377  
 999  	58.5337   	-19.806580  
 1000 	58.5924   	-19.842529  
 1001 	58.6510   	-19.714539  
 1002 	58.7097   	-19.751587  
 1003 	58.7683   	-19.834654  
 1004 	58.8270   	-19.841978  
 1005 	58.8856   	-19.777405  
 1006 	58.9443   	-19.715637  
 1007 	59.0029   	-19.724607  
 1008 	59.0616   	-19.807188  
 1009 	59.1202   	-19.809387  
 1010 	59.1789   	-19.742004  
 1011 	59.2375   	-19.772339  
 1012 	59.2962   	-19.809996  
 1013 	59.3548   	-19.831846  
 1014 	59.4135   	-19.797056  
 1015 	59.4721   	-19.804930  
 1016 	59.5308   	-19.730223  
 1017 	59.5894   	-19.781311  
 1018 	59.6481   	-19.763365  
 1019 	59.7067   	-19.687012  
 1020 	59.7654   	-19.692625  
 1021 	59.8240   	-19.692625  
 1022 	59.8827   	-19.657776  
 1023 	59.9413   	-19.608948  
 1024 	60.0000   	-19.606689  

