
      	X(nS)     	Ch1(mV)      


 1    	0.0000    	-24.318420  
 2    	0.0587    	-24.322388  
 3    	0.1173    	-24.340881  
 4    	0.1760    	-24.386414  
 5    	0.2346    	-24.260620  
 6    	0.2933    	-24.291504  
 7    	0.3519    	-24.213989  
 8    	0.4106    	-24.220762  
 9    	0.4692    	-24.265686  
 10   	0.5279    	-24.279722  
 11   	0.5865    	-24.211729  
 12   	0.6452    	-24.205015  
 13   	0.7038    	-24.198853  
 14   	0.7625    	-24.147156  
 15   	0.8211    	-24.120789  
 16   	0.8798    	-24.089905  
 17   	0.9384    	-24.087645  
 18   	0.9971    	-24.078125  
 19   	1.0557    	-24.066345  
 20   	1.1144    	-24.106749  
 21   	1.1730    	-24.103943  
 22   	1.2317    	-24.004578  
 23   	1.2903    	-24.036560  
 24   	1.3490    	-24.048887  
 25   	1.4076    	-24.040464  
 26   	1.4663    	-24.087095  
 27   	1.5249    	-24.084290  
 28   	1.5836    	-24.059568  
 29   	1.6422    	-24.161194  
 30   	1.7009    	-24.115173  
 31   	1.7595    	-24.072510  
 32   	1.8182    	-24.104492  
 33   	1.8768    	-24.061279  
 34   	1.9355    	-23.997801  
 35   	1.9941    	-23.988281  
 36   	2.0528    	-24.067444  
 37   	2.1114    	-24.052856  
 38   	2.1701    	-24.085386  
 39   	2.2287    	-24.067993  
 40   	2.2874    	-24.022520  
 41   	2.3460    	-24.064085  
 42   	2.4047    	-23.972532  
 43   	2.4633    	-24.007933  
 44   	2.5220    	-24.024780  
 45   	2.5806    	-23.996153  
 46   	2.6393    	-24.041626  
 47   	2.6979    	-24.074158  
 48   	2.7566    	-24.103394  
 49   	2.8152    	-24.044432  
 50   	2.8739    	-24.030396  
 51   	2.9326    	-24.088196  
 52   	2.9912    	-24.033751  
 53   	3.0499    	-24.000061  
 54   	3.1085    	-23.976500  
 55   	3.1672    	-24.010742  
 56   	3.2258    	-24.055662  
 57   	3.2845    	-24.074158  
 58   	3.3431    	-24.039366  
 59   	3.4018    	-24.109558  
 60   	3.4604    	-23.915283  
 61   	3.5191    	-23.880432  
 62   	3.5777    	-23.845091  
 63   	3.6364    	-23.808592  
 64   	3.6950    	-23.810240  
 65   	3.7537    	-23.794554  
 66   	3.8123    	-23.854065  
 67   	3.8710    	-23.764771  
 68   	3.9296    	-23.805235  
 69   	3.9883    	-23.716490  
 70   	4.0469    	-23.574400  
 71   	4.1056    	-23.589048  
 72   	4.1642    	-23.554747  
 73   	4.2229    	-23.541870  
 74   	4.2815    	-23.477295  
 75   	4.3402    	-23.503111  
 76   	4.3988    	-23.522215  
 77   	4.4575    	-23.502562  
 78   	4.5161    	-23.475584  
 79   	4.5748    	-23.400330  
 80   	4.6334    	-23.395325  
 81   	4.6921    	-23.395325  
 82   	4.7507    	-23.310484  
 83   	4.8094    	-23.239197  
 84   	4.8680    	-23.167297  
 85   	4.9267    	-23.098267  
 86   	4.9853    	-22.983154  
 87   	5.0440    	-22.884888  
 88   	5.1026    	-22.875305  
 89   	5.1613    	-22.750120  
 90   	5.2199    	-22.618164  
 91   	5.2786    	-22.318846  
 92   	5.3372    	-21.958921  
 93   	5.3959    	-21.429382  
 94   	5.4545    	-20.719664  
 95   	5.5132    	-19.749329  
 96   	5.5718    	-18.105164  
 97   	5.6305    	-16.241516  
 98   	5.6891    	-14.431151  
 99   	5.7478    	-13.332213  
 100  	5.8065    	-12.480956  
 101  	5.8651    	-11.603882  
 102  	5.9238    	-8.912476   
 103  	5.9824    	10.156860   
 104  	6.0411    	36.362610   
 105  	6.0997    	55.467831   
 106  	6.1584    	69.630676   
 107  	6.2170    	80.100159   
 108  	6.2757    	87.485893   
 109  	6.3343    	93.409485   
 110  	6.3930    	97.280571   
 111  	6.4516    	100.293152  
 112  	6.5103    	102.909843  
 113  	6.5689    	105.076233  
 114  	6.6276    	106.845520  
 115  	6.6862    	108.128113  
 116  	6.7449    	109.016899  
 117  	6.8035    	109.744202  
 118  	6.8622    	110.247246  
 119  	6.9208    	110.873962  
 120  	6.9795    	111.431450  
 121  	7.0381    	111.864433  
 122  	7.0968    	112.355278  
 123  	7.1554    	112.495056  
 124  	7.2141    	112.801079  
 125  	7.2727    	113.296936  
 126  	7.3314    	113.824760  
 127  	7.3900    	114.296928  
 128  	7.4487    	114.782166  
 129  	7.5073    	115.320618  
 130  	7.5660    	115.444763  
 131  	7.6246    	115.480644  
 132  	7.6833    	115.633965  
 133  	7.7419    	115.876518  
 134  	7.8006    	116.083801  
 135  	7.8592    	116.352112  
 136  	7.9179    	116.569389  
 137  	7.9765    	116.596497  
 138  	8.0352    	116.659241  
 139  	8.0938    	116.662170  
 140  	8.1525    	116.687920  
 141  	8.2111    	116.740166  
 142  	8.2698    	116.930473  
 143  	8.3284    	116.990044  
 144  	8.3871    	117.101860  
 145  	8.4457    	117.208549  
 146  	8.5044    	117.173149  
 147  	8.5630    	117.006889  
 148  	8.6217    	116.895683  
 149  	8.6804    	116.686333  
 150  	8.7390    	116.615540  
 151  	8.7977    	116.530090  
 152  	8.8563    	116.460503  
 153  	8.9150    	116.457695  
 154  	8.9736    	116.458801  
 155  	9.0323    	116.538025  
 156  	9.0909    	116.552551  
 157  	9.1496    	116.589661  
 158  	9.2082    	116.664368  
 159  	9.2669    	116.688530  
 160  	9.3255    	116.856377  
 161  	9.3842    	117.085014  
 162  	9.4428    	117.228088  
 163  	9.5015    	117.383110  
 164  	9.5601    	117.364563  
 165  	9.6188    	117.345520  
 166  	9.6774    	117.283752  
 167  	9.7361    	117.265686  
 168  	9.7947    	117.327454  
 169  	9.8534    	117.336479  
 170  	9.9120    	117.639709  
 171  	9.9707    	117.720520  
 172  	10.0293   	117.795227  
 173  	10.0880   	117.850883  
 174  	10.1466   	117.898613  
 175  	10.2053   	117.939026  
 176  	10.2639   	117.955376  
 177  	10.3226   	117.980530  
 178  	10.3812   	117.979424  
 179  	10.4399   	117.964897  
 180  	10.4985   	117.972710  
 181  	10.5572   	117.919373  
 182  	10.6158   	117.912651  
 183  	10.6745   	117.899223  
 184  	10.7331   	117.832336  
 185  	10.7918   	117.770073  
 186  	10.8504   	117.709282  
 187  	10.9091   	117.643120  
 188  	10.9677   	117.694756  
 189  	11.0264   	117.675598  
 190  	11.0850   	117.629692  
 191  	11.1437   	117.548759  
 192  	11.2023   	117.467834  
 193  	11.2610   	117.506645  
 194  	11.3196   	117.548759  
 195  	11.3783   	117.644226  
 196  	11.4370   	117.756523  
 197  	11.4956   	117.674622  
 198  	11.5543   	117.553764  
 199  	11.6129   	117.421318  
 200  	11.6716   	117.308403  
 201  	11.7302   	117.283142  
 202  	11.7889   	117.236023  
 203  	11.8475   	117.243835  
 204  	11.9062   	117.349419  
 205  	11.9648   	117.447685  
 206  	12.0235   	117.563896  
 207  	12.0821   	117.393242  
 208  	12.1408   	117.365173  
 209  	12.1994   	117.272514  
 210  	12.2581   	117.119690  
 211  	12.3167   	117.046204  
 212  	12.3754   	116.876640  
 213  	12.4340   	116.668266  
 214  	12.4927   	116.438652  
 215  	12.5513   	116.290344  
 216  	12.6100   	116.124199  
 217  	12.6686   	115.930473  
 218  	12.7273   	115.793510  
 219  	12.7859   	115.784966  
 220  	12.8446   	115.659233  
 221  	12.9032   	115.388603  
 222  	12.9619   	115.251030  
 223  	13.0205   	115.131401  
 224  	13.0792   	115.013977  
 225  	13.1378   	114.885437  
 226  	13.1965   	114.698547  
 227  	13.2551   	114.520439  
 228  	13.3138   	114.235771  
 229  	13.3724   	114.106621  
 230  	13.4311   	113.969543  
 231  	13.4897   	113.812309  
 232  	13.5484   	113.792778  
 233  	13.6070   	113.705139  
 234  	13.6657   	113.660217  
 235  	13.7243   	113.536186  
 236  	13.7830   	113.528252  
 237  	13.8416   	113.441711  
 238  	13.9003   	113.342949  
 239  	13.9589   	113.281799  
 240  	14.0176   	113.277283  
 241  	14.0762   	113.254822  
 242  	14.1349   	113.482239  
 243  	14.1935   	113.590630  
 244  	14.2522   	113.649475  
 245  	14.3109   	113.686577  
 246  	14.3695   	113.728081  
 247  	14.4282   	113.789368  
 248  	14.4868   	113.767998  
 249  	14.5455   	113.664116  
 250  	14.6041   	113.637756  
 251  	14.6628   	113.585510  
 252  	14.7214   	113.546814  
 253  	14.7801   	113.514221  
 254  	14.8387   	113.462585  
 255  	14.8974   	113.464172  
 256  	14.9560   	113.524353  
 257  	15.0147   	113.681572  
 258  	15.0733   	113.896538  
 259  	15.1320   	114.016174  
 260  	15.1906   	114.107231  
 261  	15.2493   	114.188530  
 262  	15.3079   	114.157776  
 263  	15.3666   	114.098686  
 264  	15.4252   	114.018486  
 265  	15.4839   	114.003845  
 266  	15.5425   	114.033630  
 267  	15.6012   	114.046570  
 268  	15.6598   	113.955627  
 269  	15.7185   	113.913383  
 270  	15.7771   	113.782646  
 271  	15.8358   	113.571472  
 272  	15.8944   	113.517639  
 273  	15.9531   	113.556335  
 274  	16.0117   	113.641174  
 275  	16.0704   	113.616997  
 276  	16.1290   	113.564270  
 277  	16.1877   	113.396782  
 278  	16.2463   	113.265434  
 279  	16.3050   	112.985901  
 280  	16.3636   	112.608459  
 281  	16.4223   	112.160950  
 282  	16.4809   	111.805473  
 283  	16.5396   	111.340630  
 284  	16.5982   	110.792542  
 285  	16.6569   	110.073174  
 286  	16.7155   	109.168022  
 287  	16.7742   	108.267883  
 288  	16.8328   	107.349182  
 289  	16.8915   	106.334045  
 290  	16.9501   	105.392883  
 291  	17.0088   	104.540581  
 292  	17.0674   	103.561211  
 293  	17.1261   	102.566711  
 294  	17.1848   	101.393127  
 295  	17.2434   	100.286430  
 296  	17.3021   	99.111633   
 297  	17.3607   	98.042053   
 298  	17.4194   	97.050842   
 299  	17.4780   	96.236633   
 300  	17.5367   	95.348442   
 301  	17.5953   	94.526299   
 302  	17.6540   	93.561584   
 303  	17.7126   	92.484673   
 304  	17.7713   	91.433411   
 305  	17.8299   	90.062187   
 306  	17.8886   	88.721252   
 307  	17.9472   	87.061951   
 308  	18.0059   	85.530090   
 309  	18.0645   	83.923035   
 310  	18.1232   	82.320496   
 311  	18.1818   	80.785217   
 312  	18.2405   	79.228699   
 313  	18.2991   	77.594666   
 314  	18.3578   	75.898247   
 315  	18.4164   	74.265442   
 316  	18.4751   	72.602715   
 317  	18.5337   	71.126526   
 318  	18.5924   	69.586731   
 319  	18.6510   	68.157166   
 320  	18.7097   	66.861755   
 321  	18.7683   	65.494934   
 322  	18.8270   	64.122612   
 323  	18.8856   	62.537411   
 324  	18.9443   	61.059505   
 325  	19.0029   	59.257019   
 326  	19.0616   	57.468075   
 327  	19.1202   	55.398743   
 328  	19.1789   	53.362728   
 329  	19.2375   	51.200863   
 330  	19.2962   	48.962585   
 331  	19.3548   	46.879944   
 332  	19.4135   	44.718079   
 333  	19.4721   	42.610657   
 334  	19.5308   	40.360046   
 335  	19.5894   	38.163879   
 336  	19.6481   	35.757263   
 337  	19.7067   	33.196167   
 338  	19.7654   	30.810791   
 339  	19.8240   	28.816282   
 340  	19.8827   	26.856567   
 341  	19.9413   	25.045652   
 342  	20.0000   	23.444761   
 343  	20.0587   	22.023499   
 344  	20.1173   	20.765137   
 345  	20.1760   	19.499451   
 346  	20.2346   	18.168091   
 347  	20.2933   	17.109619   
 348  	20.3519   	15.838318   
 349  	20.4106   	14.636108   
 350  	20.4692   	13.465332   
 351  	20.5279   	12.392821   
 352  	20.5865   	11.278747   
 353  	20.6452   	10.173706   
 354  	20.7038   	9.121948    
 355  	20.7625   	8.065185    
 356  	20.8211   	7.122375    
 357  	20.8798   	6.010559    
 358  	20.9384   	5.042480    
 359  	20.9971   	3.799255    
 360  	21.0557   	2.562805    
 361  	21.1144   	1.270203    
 362  	21.1730   	-0.092651   
 363  	21.2317   	-1.476257   
 364  	21.2903   	-2.654846   
 365  	21.3490   	-3.954773   
 366  	21.4076   	-5.180603   
 367  	21.4663   	-6.355286   
 368  	21.5249   	-7.581115   
 369  	21.5836   	-8.854675   
 370  	21.6422   	-10.006896  
 371  	21.7009   	-11.035583  
 372  	21.7595   	-11.992432  
 373  	21.8182   	-12.853271  
 374  	21.8768   	-13.584899  
 375  	21.9355   	-14.163268  
 376  	21.9941   	-14.691101  
 377  	22.0528   	-15.015136  
 378  	22.1114   	-15.260497  
 379  	22.1701   	-15.453124  
 380  	22.2287   	-15.644042  
 381  	22.2874   	-15.945557  
 382  	22.3460   	-16.243164  
 383  	22.4047   	-16.622192  
 384  	22.4633   	-17.009644  
 385  	22.5220   	-17.491455  
 386  	22.5806   	-18.081602  
 387  	22.6393   	-18.644226  
 388  	22.6979   	-19.233826  
 389  	22.7566   	-19.682495  
 390  	22.8152   	-19.970032  
 391  	22.8739   	-20.327698  
 392  	22.9326   	-20.761169  
 393  	22.9912   	-21.196350  
 394  	23.0499   	-21.560789  
 395  	23.1085   	-21.900513  
 396  	23.1672   	-22.030210  
 397  	23.2258   	-22.061707  
 398  	23.2845   	-22.156006  
 399  	23.3431   	-22.230713  
 400  	23.4018   	-22.389585  
 401  	23.4604   	-22.473816  
 402  	23.5191   	-22.500242  
 403  	23.5777   	-22.540649  
 404  	23.6364   	-22.631651  
 405  	23.6950   	-22.618713  
 406  	23.7537   	-22.436216  
 407  	23.8123   	-22.159363  
 408  	23.8710   	-21.884827  
 409  	23.9296   	-21.611877  
 410  	23.9883   	-21.350220  
 411  	24.0469   	-21.137390  
 412  	24.1056   	-21.027893  
 413  	24.1642   	-20.053099  
 414  	24.2229   	-16.899048  
 415  	24.2815   	-12.964416  
 416  	24.3402   	-9.707580   
 417  	24.3988   	-6.937622   
 418  	24.4575   	-4.436035   
 419  	24.5161   	-2.991760   
 420  	24.5748   	-2.169128   
 421  	24.6334   	-1.376282   
 422  	24.6921   	-0.577820   
 423  	24.7507   	0.164551    
 424  	24.8094   	0.391968    
 425  	24.8680   	0.966370    
 426  	24.9267   	1.448181    
 427  	24.9853   	1.808655    
 428  	25.0440   	1.967041    
 429  	25.1026   	1.954651    
 430  	25.1613   	2.207947    
 431  	25.2199   	2.457214    
 432  	25.2786   	2.441528    
 433  	25.3372   	2.448242    
 434  	25.3959   	2.534729    
 435  	25.4545   	2.756531    
 436  	25.5132   	2.799744    
 437  	25.5718   	2.780090    
 438  	25.6305   	2.950805    
 439  	25.6891   	3.156311    
 440  	25.7478   	3.265259    
 441  	25.8065   	3.102417    
 442  	25.8651   	3.132202    
 443  	25.9238   	3.225403    
 444  	25.9824   	3.359619    
 445  	26.0411   	3.336609    
 446  	26.0997   	3.484802    
 447  	26.1584   	3.632507    
 448  	26.2170   	3.768982    
 449  	26.2757   	3.913269    
 450  	26.3343   	4.086792    
 451  	26.3930   	4.387207    
 452  	26.4516   	4.748230    
 453  	26.5103   	5.224975    
 454  	26.5689   	5.870178    
 455  	26.6276   	6.745605    
 456  	26.6862   	7.652466    
 457  	26.7449   	8.413329    
 458  	26.8035   	9.284790    
 459  	26.8622   	13.015014   
 460  	26.9208   	25.677366   
 461  	26.9795   	32.578491   
 462  	27.0381   	35.571960   
 463  	27.0968   	35.205261   
 464  	27.1554   	33.411804   
 465  	27.2141   	31.176939   
 466  	27.2727   	28.696104   
 467  	27.3314   	26.294495   
 468  	27.3900   	23.797363   
 469  	27.4487   	21.616394   
 470  	27.5073   	19.748230   
 471  	27.5660   	17.995728   
 472  	27.6246   	16.504333   
 473  	27.6833   	15.093749   
 474  	27.7419   	13.674254   
 475  	27.8006   	12.650023   
 476  	27.8592   	11.851501   
 477  	27.9179   	11.195678   
 478  	27.9765   	10.542053   
 479  	28.0352   	10.031615   
 480  	28.0938   	9.509399    
 481  	28.1525   	8.971497    
 482  	28.2111   	8.668274    
 483  	28.2698   	8.315612    
 484  	28.3284   	8.123595    
 485  	28.3871   	7.932067    
 486  	28.4457   	7.855164    
 487  	28.5044   	7.720947    
 488  	28.5630   	7.501404    
 489  	28.6217   	7.386291    
 490  	28.6804   	7.193115    
 491  	28.7390   	7.108337    
 492  	28.7977   	6.913513    
 493  	28.8563   	6.767517    
 494  	28.9150   	6.591187    
 495  	28.9736   	6.478881    
 496  	29.0323   	6.290222    
 497  	29.0909   	6.160461    
 498  	29.1496   	6.013366    
 499  	29.2082   	5.935852    
 500  	29.2669   	5.944885    
 501  	29.3255   	5.904968    
 502  	29.3842   	5.898254    
 503  	29.4428   	5.853882    
 504  	29.5015   	5.799988    
 505  	29.5601   	5.751709    
 506  	29.6188   	5.610779    
 507  	29.6774   	5.667480    
 508  	29.7361   	5.580994    
 509  	29.7947   	5.536621    
 510  	29.8534   	5.458008    
 511  	29.9120   	5.312561    
 512  	29.9707   	5.203063    
 513  	30.0293   	4.939147    
 514  	30.0880   	4.873474    
 515  	30.1466   	4.778564    
 516  	30.2053   	4.771851    
 517  	30.2639   	4.831360    
 518  	30.3226   	4.819580    
 519  	30.3812   	4.790954    
 520  	30.4399   	4.813416    
 521  	30.4985   	4.778015    
 522  	30.5572   	4.838684    
 523  	30.6158   	4.760620    
 524  	30.6745   	4.659546    
 525  	30.7331   	4.534302    
 526  	30.7918   	4.565735    
 527  	30.8504   	4.484314    
 528  	30.9091   	4.565186    
 529  	30.9677   	4.551697    
 530  	31.0264   	4.560730    
 531  	31.0850   	4.638184    
 532  	31.1437   	4.495544    
 533  	31.2023   	4.421997    
 534  	31.2610   	4.277160    
 535  	31.3196   	4.322632    
 536  	31.3783   	4.226013    
 537  	31.4370   	4.256347    
 538  	31.4956   	4.273193    
 539  	31.5543   	4.213135    
 540  	31.6129   	4.112061    
 541  	31.6716   	4.030640    
 542  	31.7302   	4.044677    
 543  	31.7889   	3.990784    
 544  	31.8475   	3.957641    
 545  	31.9062   	3.976745    
 546  	31.9648   	3.932922    
 547  	32.0235   	3.925049    
 548  	32.0821   	3.861633    
 549  	32.1408   	3.807129    
 550  	32.1994   	3.757751    
 551  	32.2581   	3.781860    
 552  	32.3167   	3.737488    
 553  	32.3754   	3.737488    
 554  	32.4340   	3.757751    
 555  	32.4927   	3.822326    
 556  	32.5513   	3.795898    
 557  	32.6100   	3.857116    
 558  	32.6686   	3.837463    
 559  	32.7273   	3.755493    
 560  	32.7859   	3.775696    
 561  	32.8446   	3.726257    
 562  	32.9032   	3.711670    
 563  	32.9619   	3.740906    
 564  	33.0205   	3.688660    
 565  	33.0792   	3.597107    
 566  	33.1378   	3.554443    
 567  	33.1965   	3.554443    
 568  	33.2551   	3.640930    
 569  	33.3138   	3.613403    
 570  	33.3724   	3.553344    
 571  	33.4311   	3.390503    
 572  	33.4897   	3.201843    
 573  	33.5484   	3.152405    
 574  	33.6070   	3.123230    
 575  	33.6657   	3.118164    
 576  	33.7243   	3.444397    
 577  	33.7830   	3.749328    
 578  	33.8416   	2.869934    
 579  	33.9003   	0.838928    
 580  	33.9589   	-1.614929   
 581  	34.0176   	-4.033386   
 582  	34.0762   	-5.414185   
 583  	34.1349   	-4.176575   
 584  	34.1935   	-1.117981   
 585  	34.2522   	-0.676086   
 586  	34.3109   	2.333679    
 587  	34.3695   	6.754028    
 588  	34.4282   	10.196716   
 589  	34.4868   	11.183899   
 590  	34.5455   	9.594177    
 591  	34.6041   	6.193054    
 592  	34.6628   	3.923401    
 593  	34.7214   	3.056396    
 594  	34.7801   	4.116516    
 595  	34.8387   	4.675842    
 596  	34.8974   	4.654480    
 597  	34.9560   	3.821716    
 598  	35.0147   	2.479126    
 599  	35.0733   	1.506042    
 600  	35.1320   	0.721008    
 601  	35.1906   	0.861389    
 602  	35.2493   	1.265686    
 603  	35.3079   	1.331970    
 604  	35.3666   	0.700806    
 605  	35.4252   	-0.055603   
 606  	35.4839   	-0.513245   
 607  	35.5425   	-0.791199   
 608  	35.6012   	-0.738403   
 609  	35.6598   	-0.709167   
 610  	35.7185   	-0.561523   
 611  	35.7771   	-0.729431   
 612  	35.8358   	-1.252747   
 613  	35.8944   	-1.641907   
 614  	35.9531   	-1.983826   
 615  	36.0117   	-2.007996   
 616  	36.0704   	-2.015320   
 617  	36.1290   	-2.300537   
 618  	36.1877   	-2.552124   
 619  	36.2463   	-2.772766   
 620  	36.3050   	-3.127686   
 621  	36.3636   	-3.623474   
 622  	36.4223   	-3.973327   
 623  	36.4809   	-4.250732   
 624  	36.5396   	-4.393920   
 625  	36.5982   	-4.565186   
 626  	36.6569   	-4.876282   
 627  	36.7155   	-5.299072   
 628  	36.7742   	-5.607360   
 629  	36.8328   	-5.985291   
 630  	36.8915   	-6.476624   
 631  	36.9501   	-6.693909   
 632  	37.0088   	-6.966248   
 633  	37.0674   	-7.294189   
 634  	37.1261   	-7.637268   
 635  	37.1848   	-7.998352   
 636  	37.2434   	-8.377930   
 637  	37.3021   	-8.792296   
 638  	37.3607   	-9.196593   
 639  	37.4194   	-9.697510   
 640  	37.4780   	-10.056885  
 641  	37.5367   	-10.552123  
 642  	37.5953   	-10.925537  
 643  	37.6540   	-11.392761  
 644  	37.7126   	-11.803222  
 645  	37.7713   	-12.279967  
 646  	37.8299   	-12.725769  
 647  	37.8886   	-13.122252  
 648  	37.9472   	-13.495056  
 649  	38.0059   	-13.872985  
 650  	38.0645   	-14.272765  
 651  	38.1232   	-14.628784  
 652  	38.1818   	-15.065673  
 653  	38.2405   	-15.397522  
 654  	38.2991   	-15.759705  
 655  	38.3578   	-16.085388  
 656  	38.4164   	-16.374023  
 657  	38.4751   	-16.699705  
 658  	38.5337   	-16.977661  
 659  	38.5924   	-17.165771  
 660  	38.6510   	-17.410583  
 661  	38.7097   	-17.619446  
 662  	38.7683   	-17.822205  
 663  	38.8270   	-18.013121  
 664  	38.8856   	-18.244995  
 665  	38.9443   	-18.517881  
 666  	39.0029   	-18.636412  
 667  	39.0616   	-18.979492  
 668  	39.1202   	-19.138365  
 669  	39.1789   	-19.343933  
 670  	39.2375   	-19.568542  
 671  	39.2962   	-19.787537  
 672  	39.3548   	-20.086243  
 673  	39.4135   	-20.339478  
 674  	39.4721   	-20.615782  
 675  	39.5308   	-20.869566  
 676  	39.5894   	-21.248047  
 677  	39.6481   	-21.554077  
 678  	39.7067   	-21.903320  
 679  	39.7654   	-22.102110  
 680  	39.8240   	-22.347473  
 681  	39.8827   	-22.586731  
 682  	39.9413   	-22.731565  
 683  	40.0000   	-22.996031  
 684  	40.0587   	-23.118469  
 685  	40.1173   	-23.192566  
 686  	40.1760   	-23.298704  
 687  	40.2346   	-23.446411  
 688  	40.2933   	-23.534544  
 689  	40.3519   	-23.545776  
 690  	40.4106   	-23.693481  
 691  	40.4692   	-23.748472  
 692  	40.5279   	-23.820921  
 693  	40.5865   	-23.872007  
 694  	40.6452   	-23.919737  
 695  	40.7038   	-24.110107  
 696  	40.7625   	-24.311155  
 697  	40.8211   	-24.442566  
 698  	40.8798   	-24.605957  
 699  	40.9384   	-24.635130  
 700  	40.9971   	-24.765991  
 701  	41.0557   	-24.760925  
 702  	41.1144   	-24.777771  
 703  	41.1730   	-24.870972  
 704  	41.2317   	-24.906921  
 705  	41.2903   	-24.954102  
 706  	41.3490   	-25.093321  
 707  	41.4076   	-25.237669  
 708  	41.4663   	-25.254515  
 709  	41.5249   	-25.305052  
 710  	41.5836   	-25.362305  
 711  	41.6422   	-25.414001  
 712  	41.7009   	-25.403870  
 713  	41.7595   	-25.490356  
 714  	41.8182   	-25.406126  
 715  	41.8768   	-25.390928  
 716  	41.9355   	-25.450500  
 717  	41.9941   	-25.463377  
 718  	42.0528   	-25.532471  
 719  	42.1114   	-25.652649  
 720  	42.1701   	-25.597044  
 721  	42.2287   	-25.620054  
 722  	42.2874   	-25.699768  
 723  	42.3460   	-25.703184  
 724  	42.4047   	-25.676756  
 725  	42.4633   	-25.773926  
 726  	42.5220   	-25.720032  
 727  	42.5806   	-25.716064  
 728  	42.6393   	-25.752014  
 729  	42.6979   	-25.702574  
 730  	42.7566   	-25.752014  
 731  	42.8152   	-25.766600  
 732  	42.8739   	-25.863218  
 733  	42.9326   	-25.848570  
 734  	42.9912   	-25.794678  
 735  	43.0499   	-25.769957  
 736  	43.1085   	-25.760435  
 737  	43.1672   	-25.829529  
 738  	43.2258   	-25.869383  
 739  	43.2845   	-25.767761  
 740  	43.3431   	-25.759886  
 741  	43.4018   	-25.784605  
 742  	43.4604   	-25.799744  
 743  	43.5191   	-25.898010  
 744  	43.5777   	-26.038391  
 745  	43.6364   	-26.169250  
 746  	43.6950   	-26.305115  
 747  	43.7537   	-26.242798  
 748  	43.8123   	-26.042908  
 749  	43.8710   	-26.042295  
 750  	43.9296   	-25.901365  
 751  	43.9883   	-25.700928  
 752  	44.0469   	-25.435852  
 753  	44.1056   	-25.431395  
 754  	44.1642   	-25.352232  
 755  	44.2229   	-25.498777  
 756  	44.2815   	-26.018738  
 757  	44.3402   	-26.558897  
 758  	44.3988   	-26.690857  
 759  	44.4575   	-26.607788  
 760  	44.5161   	-26.460630  
 761  	44.5748   	-26.260740  
 762  	44.6334   	-26.055237  
 763  	44.6921   	-25.854185  
 764  	44.7507   	-25.759336  
 765  	44.8094   	-25.526855  
 766  	44.8680   	-25.383665  
 767  	44.9267   	-25.305601  
 768  	44.9853   	-25.466736  
 769  	45.0440   	-25.291563  
 770  	45.1026   	-24.096617  
 771  	45.1613   	-22.466553  
 772  	45.2199   	-21.182310  
 773  	45.2786   	-20.728638  
 774  	45.3372   	-20.534910  
 775  	45.3959   	-20.797119  
 776  	45.4545   	-21.447935  
 777  	45.5132   	-21.939270  
 778  	45.5718   	-22.233521  
 779  	45.6305   	-22.413208  
 780  	45.6891   	-23.030884  
 781  	45.7478   	-23.400940  
 782  	45.8065   	-23.624939  
 783  	45.8651   	-23.845640  
 784  	45.9238   	-23.996153  
 785  	45.9824   	-24.270691  
 786  	46.0411   	-24.416136  
 787  	46.0997   	-24.573914  
 788  	46.1584   	-24.837828  
 789  	46.2170   	-25.141050  
 790  	46.2757   	-25.239317  
 791  	46.3343   	-25.184326  
 792  	46.3930   	-25.287046  
 793  	46.4516   	-25.346617  
 794  	46.5103   	-25.524595  
 795  	46.5689   	-25.589170  
 796  	46.6276   	-25.683533  
 797  	46.6862   	-25.807615  
 798  	46.7449   	-25.862061  
 799  	46.8035   	-25.845215  
 800  	46.8622   	-25.726196  
 801  	46.9208   	-25.661070  
 802  	46.9795   	-25.668884  
 803  	47.0381   	-25.553772  
 804  	47.0968   	-25.500425  
 805  	47.1554   	-25.497620  
 806  	47.2141   	-25.466736  
 807  	47.2727   	-25.434204  
 808  	47.3314   	-25.432493  
 809  	47.3900   	-25.351624  
 810  	47.4487   	-25.251160  
 811  	47.5073   	-25.061888  
 812  	47.5660   	-24.734558  
 813  	47.6246   	-24.409971  
 814  	47.6833   	-24.077576  
 815  	47.7419   	-24.078125  
 816  	47.8006   	-24.196592  
 817  	47.8592   	-24.422302  
 818  	47.9179   	-24.754759  
 819  	47.9765   	-25.050657  
 820  	48.0352   	-25.226440  
 821  	48.0938   	-25.367920  
 822  	48.1525   	-25.479124  
 823  	48.2111   	-25.376892  
 824  	48.2698   	-25.379148  
 825  	48.3284   	-25.415648  
 826  	48.3871   	-25.307310  
 827  	48.4457   	-25.248899  
 828  	48.5044   	-25.325806  
 829  	48.5630   	-25.328062  
 830  	48.6217   	-25.425779  
 831  	48.6804   	-25.409483  
 832  	48.7390   	-25.434753  
 833  	48.7977   	-25.323545  
 834  	48.8563   	-25.318542  
 835  	48.9150   	-25.375793  
 836  	48.9736   	-25.239929  
 837  	49.0323   	-25.184875  
 838  	49.0909   	-25.134886  
 839  	49.1496   	-25.114134  
 840  	49.2082   	-25.065247  
 841  	49.2669   	-25.035521  
 842  	49.3255   	-25.083250  
 843  	49.3842   	-25.124205  
 844  	49.4428   	-25.182615  
 845  	49.5015   	-25.223631  
 846  	49.5601   	-25.292664  
 847  	49.6188   	-25.292664  
 848  	49.6774   	-25.349976  
 849  	49.7361   	-25.436460  
 850  	49.7947   	-25.451048  
 851  	49.8534   	-25.533569  
 852  	49.9120   	-25.586914  
 853  	49.9707   	-25.664429  
 854  	50.0293   	-25.657103  
 855  	50.0880   	-25.705994  
 856  	50.1466   	-25.601501  
 857  	50.2053   	-25.516724  
 858  	50.2639   	-25.408936  
 859  	50.3226   	-25.293274  
 860  	50.3812   	-25.266846  
 861  	50.4399   	-25.245544  
 862  	50.4985   	-25.261230  
 863  	50.5572   	-25.183777  
 864  	50.6158   	-25.180359  
 865  	50.6745   	-25.180359  
 866  	50.7331   	-25.169128  
 867  	50.7918   	-25.204529  
 868  	50.8504   	-25.280882  
 869  	50.9091   	-25.372984  
 870  	50.9677   	-25.366272  
 871  	51.0264   	-25.392639  
 872  	51.0850   	-25.398804  
 873  	51.1437   	-25.344360  
 874  	51.2023   	-25.277527  
 875  	51.2610   	-25.247192  
 876  	51.3196   	-25.243834  
 877  	51.3783   	-25.196104  
 878  	51.4370   	-25.220276  
 879  	51.4956   	-25.224180  
 880  	51.5543   	-25.229246  
 881  	51.6129   	-25.251709  
 882  	51.6716   	-25.243284  
 883  	51.7302   	-25.208433  
 884  	51.7889   	-25.148926  
 885  	51.8475   	-25.123106  
 886  	51.9062   	-25.160154  
 887  	51.9648   	-25.159605  
 888  	52.0235   	-25.146667  
 889  	52.0821   	-25.154539  
 890  	52.1408   	-25.141663  
 891  	52.1994   	-25.071470  
 892  	52.2581   	-25.000120  
 893  	52.3167   	-25.087156  
 894  	52.3754   	-25.114134  
 895  	52.4340   	-25.119749  
 896  	52.4927   	-25.218016  
 897  	52.5513   	-25.292664  
 898  	52.6100   	-25.333128  
 899  	52.6686   	-25.218565  
 900  	52.7273   	-25.199463  
 901  	52.7859   	-25.114683  
 902  	52.8446   	-25.099548  
 903  	52.9032   	-25.124205  
 904  	52.9619   	-25.166319  
 905  	53.0205   	-25.216309  
 906  	53.0792   	-25.243284  
 907  	53.1378   	-25.249449  
 908  	53.1965   	-25.179260  
 909  	53.2551   	-25.169737  
 910  	53.3138   	-25.153442  
 911  	53.3724   	-25.119749  
 912  	53.4311   	-25.083801  
 913  	53.4897   	-25.171385  
 914  	53.5484   	-25.061888  
 915  	53.6070   	-25.095581  
 916  	53.6657   	-25.066954  
 917  	53.7243   	-25.036619  
 918  	53.7830   	-25.010803  
 919  	53.8416   	-25.060240  
 920  	53.9003   	-25.114134  
 921  	53.9589   	-25.036619  
 922  	54.0176   	-25.218565  
 923  	54.0762   	-25.130981  
 924  	54.1349   	-25.152893  
 925  	54.1935   	-25.149473  
 926  	54.2522   	-25.148926  
 927  	54.3109   	-25.207335  
 928  	54.3695   	-25.164671  
 929  	54.4282   	-25.152893  
 930  	54.4868   	-25.210144  
 931  	54.5455   	-25.303894  
 932  	54.6041   	-25.398254  
 933  	54.6628   	-25.281431  
 934  	54.7214   	-25.501038  
 935  	54.7801   	-26.209105  
 936  	54.8387   	-27.060364  
 937  	54.8974   	-27.774046  
 938  	54.9560   	-28.125000  
 939  	55.0147   	-27.421997  
 940  	55.0733   	-25.261230  
 941  	55.1320   	-24.412231  
 942  	55.1906   	-23.726622  
 943  	55.2493   	-22.240782  
 944  	55.3079   	-20.834167  
 945  	55.3666   	-20.715696  
 946  	55.4252   	-21.771910  
 947  	55.4839   	-23.828247  
 948  	55.5425   	-25.451597  
 949  	55.6012   	-26.053526  
 950  	55.6598   	-25.620054  
 951  	55.7185   	-25.065855  
 952  	55.7771   	-24.991150  
 953  	55.8358   	-25.104002  
 954  	55.8944   	-25.716614  
 955  	55.9531   	-25.990660  
 956  	56.0117   	-26.023804  
 957  	56.0704   	-25.994566  
 958  	56.1290   	-25.582457  
 959  	56.1877   	-25.091673  
 960  	56.2463   	-24.922056  
 961  	56.3050   	-25.033813  
 962  	56.3636   	-25.312927  
 963  	56.4223   	-25.284241  
 964  	56.4809   	-25.246094  
 965  	56.5396   	-25.132080  
 966  	56.5982   	-25.106262  
 967  	56.6569   	-24.982725  
 968  	56.7155   	-24.909727  
 969  	56.7742   	-25.033813  
 970  	56.8328   	-25.078735  
 971  	56.8915   	-25.050657  
 972  	56.9501   	-24.986633  
 973  	57.0088   	-24.952391  
 974  	57.0674   	-24.895140  
 975  	57.1261   	-24.903015  
 976  	57.1848   	-24.985535  
 977  	57.2434   	-25.026550  
 978  	57.3021   	-25.085510  
 979  	57.3607   	-25.006287  
 980  	57.4194   	-24.962523  
 981  	57.4780   	-24.842344  
 982  	57.5367   	-24.845154  
 983  	57.5953   	-24.824951  
 984  	57.6540   	-24.938904  
 985  	57.7126   	-24.845703  
 986  	57.7713   	-24.969238  
 987  	57.8299   	-24.936705  
 988  	57.8886   	-24.939514  
 989  	57.9472   	-24.910826  
 990  	58.0059   	-24.947325  
 991  	58.0645   	-24.926023  
 992  	58.1232   	-24.883360  
 993  	58.1818   	-24.802490  
 994  	58.2405   	-24.725525  
 995  	58.2991   	-24.832212  
 996  	58.3578   	-24.864807  
 997  	58.4164   	-24.882202  
 998  	58.4751   	-24.904661  
 999  	58.5337   	-24.923767  
 1000 	58.5924   	-24.919250  
 1001 	58.6510   	-24.920958  
 1002 	58.7097   	-24.864807  
 1003 	58.7683   	-24.800230  
 1004 	58.8270   	-24.721617  
 1005 	58.8856   	-24.755310  
 1006 	58.9443   	-24.785093  
 1007 	59.0029   	-24.750793  
 1008 	59.0616   	-24.751404  
 1009 	59.1202   	-24.715454  
 1010 	59.1789   	-24.703062  
 1011 	59.2375   	-24.766541  
 1012 	59.2962   	-24.696348  
 1013 	59.3548   	-24.678406  
 1014 	59.4135   	-24.692444  
 1015 	59.4721   	-24.650879  
 1016 	59.5308   	-24.714905  
 1017 	59.5894   	-24.714294  
 1018 	59.6481   	-24.733397  
 1019 	59.7067   	-24.757019  
 1020 	59.7654   	-24.744078  
 1021 	59.8240   	-24.733397  
 1022 	59.8827   	-24.806395  
 1023 	59.9413   	-24.775511  
 1024 	60.0000   	-24.755859  

