
      	X(nS)     	Ch1(mV)      


 1    	0.0000    	-20.719664  
 2    	0.0587    	-20.647215  
 3    	0.1173    	-20.521973  
 4    	0.1760    	-20.544983  
 5    	0.2346    	-20.539976  
 6    	0.2933    	-20.504026  
 7    	0.3519    	-20.554016  
 8    	0.4106    	-20.472593  
 9    	0.4692    	-20.474792  
 10   	0.5279    	-20.478760  
 11   	0.5865    	-20.478760  
 12   	0.6452    	-20.473145  
 13   	0.7038    	-20.571959  
 14   	0.7625    	-20.525940  
 15   	0.8211    	-20.530943  
 16   	0.8798    	-20.474792  
 17   	0.9384    	-20.530394  
 18   	0.9971    	-20.387756  
 19   	1.0557    	-20.359131  
 20   	1.1144    	-20.414734  
 21   	1.1730    	-20.359680  
 22   	1.2317    	-20.328796  
 23   	1.2903    	-20.395630  
 24   	1.3490    	-20.439453  
 25   	1.4076    	-20.415831  
 26   	1.4663    	-20.465820  
 27   	1.5249    	-20.400146  
 28   	1.5836    	-20.357481  
 29   	1.6422    	-20.335571  
 30   	1.7009    	-20.295105  
 31   	1.7595    	-20.291748  
 32   	1.8182    	-20.296265  
 33   	1.8768    	-20.228333  
 34   	1.9355    	-20.276609  
 35   	1.9941    	-20.258057  
 36   	2.0528    	-20.190125  
 37   	2.1114    	-20.182800  
 38   	2.1701    	-20.210876  
 39   	2.2287    	-20.266479  
 40   	2.2874    	-20.301880  
 41   	2.3460    	-20.349060  
 42   	2.4047    	-20.290649  
 43   	2.4633    	-20.256407  
 44   	2.5220    	-20.307495  
 45   	2.5806    	-20.222717  
 46   	2.6393    	-20.285032  
 47   	2.6979    	-20.322632  
 48   	2.7566    	-20.386656  
 49   	2.8152    	-20.362488  
 50   	2.8739    	-20.354065  
 51   	2.9326    	-20.304138  
 52   	2.9912    	-20.320982  
 53   	3.0499    	-20.388914  
 54   	3.1085    	-20.397337  
 55   	3.1672    	-20.313658  
 56   	3.2258    	-20.266479  
 57   	3.2845    	-20.290098  
 58   	3.3431    	-20.298523  
 59   	3.4018    	-20.282225  
 60   	3.4604    	-20.181152  
 61   	3.5191    	-20.291199  
 62   	3.5777    	-20.281675  
 63   	3.6364    	-20.288940  
 64   	3.6950    	-20.291199  
 65   	3.7537    	-20.215393  
 66   	3.8123    	-20.223267  
 67   	3.8710    	-20.231689  
 68   	3.9296    	-20.224365  
 69   	3.9883    	-20.116028  
 70   	4.0469    	-19.963806  
 71   	4.1056    	-19.959900  
 72   	4.1642    	-19.805479  
 73   	4.2229    	-19.765076  
 74   	4.2815    	-19.677429  
 75   	4.3402    	-19.749329  
 76   	4.3988    	-19.827393  
 77   	4.4575    	-19.831297  
 78   	4.5161    	-19.850403  
 79   	4.5748    	-19.786377  
 80   	4.6334    	-19.694275  
 81   	4.6921    	-19.725769  
 82   	4.7507    	-19.706665  
 83   	4.8094    	-19.639282  
 84   	4.8680    	-19.507324  
 85   	4.9267    	-19.438231  
 86   	4.9853    	-19.391663  
 87   	5.0440    	-19.304016  
 88   	5.1026    	-19.238892  
 89   	5.1613    	-19.145689  
 90   	5.2199    	-18.871643  
 91   	5.2786    	-18.626829  
 92   	5.3372    	-18.237730  
 93   	5.3959    	-17.611631  
 94   	5.4545    	-16.997314  
 95   	5.5132    	-15.996093  
 96   	5.5718    	-14.449097  
 97   	5.6305    	-12.500610  
 98   	5.6891    	-10.810974  
 99   	5.7478    	-9.685120   
 100  	5.8065    	-8.953490   
 101  	5.8651    	-8.037659   
 102  	5.9238    	-5.440612   
 103  	5.9824    	13.085753   
 104  	6.0411    	39.486877   
 105  	6.0997    	58.464172   
 106  	6.1584    	72.895317   
 107  	6.2170    	83.377739   
 108  	6.2757    	90.826469   
 109  	6.3343    	96.814507   
 110  	6.3930    	100.900688  
 111  	6.4516    	103.837456  
 112  	6.5103    	106.519829  
 113  	6.5689    	108.568901  
 114  	6.6276    	110.405579  
 115  	6.6862    	111.439995  
 116  	6.7449    	112.532646  
 117  	6.8035    	113.247498  
 118  	6.8622    	113.902771  
 119  	6.9208    	114.496887  
 120  	6.9795    	115.038757  
 121  	7.0381    	115.546448  
 122  	7.0968    	115.907410  
 123  	7.1554    	116.139954  
 124  	7.2141    	116.439758  
 125  	7.2727    	116.882874  
 126  	7.3314    	117.335999  
 127  	7.3900    	117.825623  
 128  	7.4487    	118.457825  
 129  	7.5073    	118.829643  
 130  	7.5660    	118.968323  
 131  	7.6246    	119.041809  
 132  	7.6833    	119.173882  
 133  	7.7419    	119.588188  
 134  	7.8006    	119.741508  
 135  	7.8592    	119.951469  
 136  	7.9179    	120.098076  
 137  	7.9765    	120.137383  
 138  	8.0352    	120.100883  
 139  	8.0938    	120.090141  
 140  	8.1525    	120.136292  
 141  	8.2111    	120.157036  
 142  	8.2698    	120.364319  
 143  	8.3284    	120.518127  
 144  	8.3871    	120.670227  
 145  	8.4457    	120.801689  
 146  	8.5044    	120.838188  
 147  	8.5630    	120.700012  
 148  	8.6217    	120.550110  
 149  	8.6804    	120.337212  
 150  	8.7390    	120.252502  
 151  	8.7977    	120.092461  
 152  	8.8563    	120.155945  
 153  	8.9150    	120.155945  
 154  	8.9736    	120.136772  
 155  	9.0323    	120.106010  
 156  	9.0909    	120.300232  
 157  	9.1496    	120.353569  
 158  	9.2082    	120.390068  
 159  	9.2669    	120.501274  
 160  	9.3255    	120.645073  
 161  	9.3842    	120.895439  
 162  	9.4428    	120.950981  
 163  	9.5015    	121.029602  
 164  	9.5601    	120.958916  
 165  	9.6188    	120.965141  
 166  	9.6774    	120.976860  
 167  	9.7361    	120.992004  
 168  	9.7947    	121.048759  
 169  	9.8534    	121.126762  
 170  	9.9120    	121.262146  
 171  	9.9707    	121.273369  
 172  	10.0293   	121.422173  
 173  	10.0880   	121.565361  
 174  	10.1466   	121.672050  
 175  	10.2053   	121.738823  
 176  	10.2639   	121.686096  
 177  	10.3226   	121.710266  
 178  	10.3812   	121.732727  
 179  	10.4399   	121.532768  
 180  	10.4985   	121.548515  
 181  	10.5572   	121.638977  
 182  	10.6158   	121.485657  
 183  	10.6745   	121.572563  
 184  	10.7331   	121.501892  
 185  	10.7918   	121.394104  
 186  	10.8504   	121.482239  
 187  	10.9091   	121.473198  
 188  	10.9677   	121.345268  
 189  	11.0264   	121.286194  
 190  	11.0850   	121.188530  
 191  	11.1437   	121.099915  
 192  	11.2023   	120.995422  
 193  	11.2610   	121.083061  
 194  	11.3196   	121.164970  
 195  	11.3783   	121.166077  
 196  	11.4370   	121.290825  
 197  	11.4956   	121.287895  
 198  	11.5543   	121.193054  
 199  	11.6129   	121.074516  
 200  	11.6716   	120.934746  
 201  	11.7302   	120.859428  
 202  	11.7889   	120.803276  
 203  	11.8475   	120.835381  
 204  	11.9062   	120.943176  
 205  	11.9648   	120.928520  
 206  	12.0235   	120.918999  
 207  	12.0821   	120.956596  
 208  	12.1408   	120.825249  
 209  	12.1994   	120.695610  
 210  	12.2581   	120.539978  
 211  	12.3167   	120.431091  
 212  	12.3754   	120.237358  
 213  	12.4340   	120.054871  
 214  	12.4927   	119.820129  
 215  	12.5513   	119.668999  
 216  	12.6100   	119.598930  
 217  	12.6686   	119.466850  
 218  	12.7273   	119.355156  
 219  	12.7859   	119.290100  
 220  	12.8446   	119.185112  
 221  	12.9032   	119.134583  
 222  	12.9619   	118.851494  
 223  	13.0205   	118.633598  
 224  	13.0792   	118.377495  
 225  	13.1378   	118.284355  
 226  	13.1965   	118.120903  
 227  	13.2551   	117.994080  
 228  	13.3138   	117.719543  
 229  	13.3724   	117.475151  
 230  	13.4311   	117.302299  
 231  	13.4897   	117.136040  
 232  	13.5484   	117.072571  
 233  	13.6070   	117.029846  
 234  	13.6657   	116.997864  
 235  	13.7243   	116.871635  
 236  	13.7830   	116.847961  
 237  	13.8416   	116.750298  
 238  	13.9003   	116.607109  
 239  	13.9589   	116.546440  
 240  	14.0176   	116.567192  
 241  	14.0762   	116.553772  
 242  	14.1349   	116.697571  
 243  	14.1935   	116.873222  
 244  	14.2522   	116.888969  
 245  	14.3109   	117.090637  
 246  	14.3695   	117.142143  
 247  	14.4282   	117.284843  
 248  	14.4868   	117.203918  
 249  	14.5455   	117.090637  
 250  	14.6041   	117.016411  
 251  	14.6628   	117.046684  
 252  	14.7214   	116.939995  
 253  	14.7801   	116.899101  
 254  	14.8387   	116.866028  
 255  	14.8974   	116.871025  
 256  	14.9560   	116.941216  
 257  	15.0147   	117.100159  
 258  	15.0733   	117.250053  
 259  	15.1320   	117.408379  
 260  	15.1906   	117.450493  
 261  	15.2493   	117.458923  
 262  	15.3079   	117.444878  
 263  	15.3666   	117.356133  
 264  	15.4252   	117.338196  
 265  	15.4839   	117.245537  
 266  	15.5425   	117.242729  
 267  	15.6012   	117.390434  
 268  	15.6598   	117.317932  
 269  	15.7185   	117.257378  
 270  	15.7771   	117.129326  
 271  	15.8358   	116.995171  
 272  	15.8944   	116.890076  
 273  	15.9531   	116.885551  
 274  	16.0117   	117.020325  
 275  	16.0704   	117.007996  
 276  	16.1290   	116.928276  
 277  	16.1877   	116.775566  
 278  	16.2463   	116.704765  
 279  	16.3050   	116.381401  
 280  	16.3636   	116.018616  
 281  	16.4223   	115.582825  
 282  	16.4809   	115.213432  
 283  	16.5396   	114.636772  
 284  	16.5982   	114.121147  
 285  	16.6569   	113.390190  
 286  	16.7155   	112.550591  
 287  	16.7742   	111.738701  
 288  	16.8328   	110.775085  
 289  	16.8915   	109.875542  
 290  	16.9501   	108.951843  
 291  	17.0088   	107.946716  
 292  	17.0674   	107.010063  
 293  	17.1261   	105.934143  
 294  	17.1848   	104.862846  
 295  	17.2434   	103.689758  
 296  	17.3021   	102.489311  
 297  	17.3607   	101.460510  
 298  	17.4194   	100.531311  
 299  	17.4780   	99.672180   
 300  	17.5367   	98.736633   
 301  	17.5953   	97.901665   
 302  	17.6540   	96.844292   
 303  	17.7126   	95.854301   
 304  	17.7713   	94.677917   
 305  	17.8299   	93.327454   
 306  	17.8886   	92.004448   
 307  	17.9472   	90.514214   
 308  	18.0059   	89.005432   
 309  	18.0645   	87.367493   
 310  	18.1232   	85.759827   
 311  	18.1818   	84.243095   
 312  	18.2405   	82.620911   
 313  	18.2991   	81.000916   
 314  	18.3578   	79.266899   
 315  	18.4164   	77.563782   
 316  	18.4751   	75.945496   
 317  	18.5337   	74.500061   
 318  	18.5924   	72.983948   
 319  	18.6510   	71.615051   
 320  	18.7097   	70.279114   
 321  	18.7683   	68.883240   
 322  	18.8270   	67.456360   
 323  	18.8856   	66.011040   
 324  	18.9443   	64.396667   
 325  	19.0029   	62.647522   
 326  	19.0616   	60.773132   
 327  	19.1202   	58.772396   
 328  	19.1789   	56.662781   
 329  	19.2375   	54.479065   
 330  	19.2962   	52.372128   
 331  	19.3548   	50.208069   
 332  	19.4135   	48.053524   
 333  	19.4721   	45.845520   
 334  	19.5308   	43.571350   
 335  	19.5894   	41.398254   
 336  	19.6481   	38.957943   
 337  	19.7067   	36.691711   
 338  	19.7654   	34.447815   
 339  	19.8240   	32.012447   
 340  	19.8827   	30.137512   
 341  	19.9413   	28.347961   
 342  	20.0000   	26.760557   
 343  	20.0587   	25.419067   
 344  	20.1173   	24.111265   
 345  	20.1760   	22.876463   
 346  	20.2346   	21.715269   
 347  	20.2933   	20.484375   
 348  	20.3519   	19.336609   
 349  	20.4106   	18.188904   
 350  	20.4692   	16.957457   
 351  	20.5279   	15.853516   
 352  	20.5865   	14.739990   
 353  	20.6452   	13.605713   
 354  	20.7038   	12.514709   
 355  	20.7625   	11.444397   
 356  	20.8211   	10.464538   
 357  	20.8798   	9.339844    
 358  	20.9384   	8.292603    
 359  	20.9971   	7.106628    
 360  	21.0557   	5.973511    
 361  	21.1144   	4.593262    
 362  	21.1730   	3.294495    
 363  	21.2317   	1.911987    
 364  	21.2903   	0.622742    
 365  	21.3490   	-0.578918   
 366  	21.4076   	-1.673340   
 367  	21.4663   	-3.015930   
 368  	21.5249   	-4.195679   
 369  	21.5836   	-5.415344   
 370  	21.6422   	-6.470397   
 371  	21.7009   	-7.568176   
 372  	21.7595   	-8.502014   
 373  	21.8182   	-9.449280   
 374  	21.8768   	-10.123108  
 375  	21.9355   	-10.714417  
 376  	21.9941   	-11.156921  
 377  	22.0528   	-11.508422  
 378  	22.1114   	-11.749878  
 379  	22.1701   	-11.996948  
 380  	22.2287   	-12.333862  
 381  	22.2874   	-12.556762  
 382  	22.3460   	-12.952087  
 383  	22.4047   	-13.273864  
 384  	22.4633   	-13.664672  
 385  	22.5220   	-14.152039  
 386  	22.5806   	-14.757934  
 387  	22.6393   	-15.294189  
 388  	22.6979   	-15.757996  
 389  	22.7566   	-16.217894  
 390  	22.8152   	-16.694639  
 391  	22.8739   	-17.087158  
 392  	22.9326   	-17.478516  
 393  	22.9912   	-17.818235  
 394  	23.0499   	-18.248352  
 395  	23.1085   	-18.453308  
 396  	23.1672   	-18.601563  
 397  	23.2258   	-18.729065  
 398  	23.2845   	-18.866028  
 399  	23.3431   	-18.995789  
 400  	23.4018   	-19.124939  
 401  	23.4604   	-19.214170  
 402  	23.5191   	-19.343323  
 403  	23.5777   	-19.471922  
 404  	23.6364   	-19.561218  
 405  	23.6950   	-19.667358  
 406  	23.7537   	-19.811096  
 407  	23.8123   	-19.945860  
 408  	23.8710   	-20.026182  
 409  	23.9296   	-19.929016  
 410  	23.9883   	-19.884644  
 411  	24.0469   	-19.709473  
 412  	24.1056   	-19.744812  
 413  	24.1642   	-19.895325  
 414  	24.2229   	-20.026731  
 415  	24.2815   	-20.140686  
 416  	24.3402   	-20.310850  
 417  	24.3988   	-20.452942  
 418  	24.4575   	-20.534363  
 419  	24.5161   	-20.677551  
 420  	24.5748   	-20.752745  
 421  	24.6334   	-20.847107  
 422  	24.6921   	-20.860596  
 423  	24.7507   	-21.000977  
 424  	24.8094   	-21.105408  
 425  	24.8680   	-21.182922  
 426  	24.9267   	-21.229490  
 427  	24.9853   	-21.241272  
 428  	25.0440   	-21.360901  
 429  	25.1026   	-21.401304  
 430  	25.1613   	-21.400757  
 431  	25.2199   	-21.376648  
 432  	25.2786   	-21.442869  
 433  	25.3372   	-21.473755  
 434  	25.3959   	-21.534424  
 435  	25.4545   	-21.506348  
 436  	25.5132   	-21.588316  
 437  	25.5718   	-21.564756  
 438  	25.6305   	-21.498474  
 439  	25.6891   	-21.596739  
 440  	25.7478   	-21.552366  
 441  	25.8065   	-21.538330  
 442  	25.8651   	-21.585510  
 443  	25.9238   	-21.659056  
 444  	25.9824   	-21.663574  
 445  	26.0411   	-21.534973  
 446  	26.0997   	-21.563047  
 447  	26.1584   	-21.404112  
 448  	26.2170   	-21.412537  
 449  	26.2757   	-21.292969  
 450  	26.3343   	-21.155394  
 451  	26.3930   	-20.945923  
 452  	26.4516   	-20.682005  
 453  	26.5103   	-20.213684  
 454  	26.5689   	-19.466856  
 455  	26.6276   	-18.800354  
 456  	26.6862   	-18.003538  
 457  	26.7449   	-17.049498  
 458  	26.8035   	-16.138733  
 459  	26.8622   	-12.528686  
 460  	26.9208   	0.154419    
 461  	26.9795   	7.178528    
 462  	27.0381   	10.171997   
 463  	27.0968   	9.725036    
 464  	27.1554   	8.153870    
 465  	27.2141   	5.881958    
 466  	27.2727   	3.377014    
 467  	27.3314   	0.840637    
 468  	27.3900   	-1.716003   
 469  	27.4487   	-3.904236   
 470  	27.5073   	-5.928527   
 471  	27.5660   	-7.722045   
 472  	27.6246   	-9.318480   
 473  	27.6833   	-10.724548  
 474  	27.7419   	-12.036804  
 475  	27.8006   	-13.203673  
 476  	27.8592   	-14.137450  
 477  	27.9179   	-14.867431  
 478  	27.9765   	-15.519958  
 479  	28.0352   	-16.046082  
 480  	28.0938   	-16.522276  
 481  	28.1525   	-16.902405  
 482  	28.2111   	-17.278624  
 483  	28.2698   	-17.617798  
 484  	28.3284   	-17.861511  
 485  	28.3871   	-17.966492  
 486  	28.4457   	-18.134399  
 487  	28.5044   	-18.328674  
 488  	28.5630   	-18.428040  
 489  	28.6217   	-18.530272  
 490  	28.6804   	-18.720032  
 491  	28.7390   	-18.921080  
 492  	28.7977   	-19.083923  
 493  	28.8563   	-19.292234  
 494  	28.9150   	-19.428162  
 495  	28.9736   	-19.629700  
 496  	29.0323   	-19.755493  
 497  	29.0909   	-19.856018  
 498  	29.1496   	-19.849302  
 499  	29.2082   	-20.010986  
 500  	29.2669   	-20.080627  
 501  	29.3255   	-20.242371  
 502  	29.3842   	-20.273254  
 503  	29.4428   	-20.414734  
 504  	29.5015   	-20.477051  
 505  	29.5601   	-20.561277  
 506  	29.6188   	-20.537718  
 507  	29.6774   	-20.628662  
 508  	29.7361   	-20.694395  
 509  	29.7947   	-20.758362  
 510  	29.8534   	-20.879700  
 511  	29.9120   	-20.897642  
 512  	29.9707   	-20.910582  
 513  	30.0293   	-21.061584  
 514  	30.0880   	-21.034119  
 515  	30.1466   	-21.081848  
 516  	30.2053   	-21.032959  
 517  	30.2639   	-21.011656  
 518  	30.3226   	-20.941465  
 519  	30.3812   	-20.959412  
 520  	30.4399   	-21.036926  
 521  	30.4985   	-21.103149  
 522  	30.5572   	-21.154846  
 523  	30.6158   	-21.262632  
 524  	30.6745   	-21.216614  
 525  	30.7331   	-21.295776  
 526  	30.7918   	-21.220520  
 527  	30.8504   	-21.273865  
 528  	30.9091   	-21.372129  
 529  	30.9677   	-21.369871  
 530  	31.0264   	-21.410887  
 531  	31.0850   	-21.346312  
 532  	31.1437   	-21.354736  
 533  	31.2023   	-21.423218  
 534  	31.2610   	-21.356384  
 535  	31.3196   	-21.390684  
 536  	31.3783   	-21.392334  
 537  	31.4370   	-21.397949  
 538  	31.4956   	-21.352478  
 539  	31.5543   	-21.337341  
 540  	31.6129   	-21.396301  
 541  	31.6716   	-21.432800  
 542  	31.7302   	-21.356995  
 543  	31.7889   	-21.407532  
 544  	31.8475   	-21.401917  
 545  	31.9062   	-21.482725  
 546  	31.9648   	-21.469849  
 547  	32.0235   	-21.510801  
 548  	32.0821   	-21.477110  
 549  	32.1408   	-21.480530  
 550  	32.1994   	-21.459717  
 551  	32.2581   	-21.478271  
 552  	32.3167   	-21.505188  
 553  	32.3754   	-21.487791  
 554  	32.4340   	-21.631529  
 555  	32.4927   	-21.620298  
 556  	32.5513   	-21.687683  
 557  	32.6100   	-21.814636  
 558  	32.6686   	-21.760681  
 559  	32.7273   	-21.820799  
 560  	32.7859   	-21.794373  
 561  	32.8446   	-21.750608  
 562  	32.9032   	-21.737669  
 563  	32.9619   	-21.834839  
 564  	33.0205   	-21.783142  
 565  	33.0792   	-21.748901  
 566  	33.1378   	-21.734861  
 567  	33.1965   	-21.750059  
 568  	33.2551   	-21.744993  
 569  	33.3138   	-21.764099  
 570  	33.3724   	-21.815733  
 571  	33.4311   	-21.830322  
 572  	33.4897   	-21.875244  
 573  	33.5484   	-21.897156  
 574  	33.6070   	-21.839293  
 575  	33.6657   	-21.840454  
 576  	33.7243   	-21.839905  
 577  	33.7830   	-21.838196  
 578  	33.8416   	-21.834839  
 579  	33.9003   	-21.838196  
 580  	33.9589   	-21.896605  
 581  	34.0176   	-21.875792  
 582  	34.0762   	-21.952209  
 583  	34.1349   	-21.963438  
 584  	34.1935   	-22.090881  
 585  	34.2522   	-22.041443  
 586  	34.3109   	-21.979675  
 587  	34.3695   	-21.999329  
 588  	34.4282   	-21.986450  
 589  	34.4868   	-21.960632  
 590  	34.5455   	-21.888731  
 591  	34.6041   	-21.890989  
 592  	34.6628   	-21.905579  
 593  	34.7214   	-22.020142  
 594  	34.7801   	-22.043701  
 595  	34.8387   	-21.974669  
 596  	34.8974   	-21.962278  
 597  	34.9560   	-21.922422  
 598  	35.0147   	-21.865171  
 599  	35.0733   	-21.880310  
 600  	35.1320   	-21.914549  
 601  	35.1906   	-21.875244  
 602  	35.2493   	-21.960020  
 603  	35.3079   	-21.996519  
 604  	35.3666   	-22.002745  
 605  	35.4252   	-21.993711  
 606  	35.4839   	-21.997131  
 607  	35.5425   	-22.039244  
 608  	35.6012   	-22.066160  
 609  	35.6598   	-22.043152  
 610  	35.7185   	-22.045959  
 611  	35.7771   	-22.059448  
 612  	35.8358   	-22.098755  
 613  	35.8944   	-22.111082  
 614  	35.9531   	-22.018982  
 615  	36.0117   	-21.868530  
 616  	36.0704   	-21.798340  
 617  	36.1290   	-21.791565  
 618  	36.1877   	-21.788208  
 619  	36.2463   	-21.795532  
 620  	36.3050   	-21.782042  
 621  	36.3636   	-21.799986  
 622  	36.4223   	-21.775330  
 623  	36.4809   	-21.822449  
 624  	36.5396   	-21.848875  
 625  	36.5982   	-21.775330  
 626  	36.6569   	-21.782593  
 627  	36.7155   	-21.652893  
 628  	36.7742   	-21.687134  
 629  	36.8328   	-21.709595  
 630  	36.8915   	-21.721985  
 631  	36.9501   	-21.778685  
 632  	37.0088   	-21.736572  
 633  	37.0674   	-21.731506  
 634  	37.1261   	-21.768005  
 635  	37.1848   	-21.764648  
 636  	37.2434   	-21.802794  
 637  	37.3021   	-21.849974  
 638  	37.3607   	-21.806213  
 639  	37.4194   	-21.844908  
 640  	37.4780   	-21.907288  
 641  	37.5367   	-21.939270  
 642  	37.5953   	-21.889280  
 643  	37.6540   	-21.907837  
 644  	37.7126   	-21.860106  
 645  	37.7713   	-21.791565  
 646  	37.8299   	-21.689941  
 647  	37.8886   	-21.655151  
 648  	37.9472   	-21.623106  
 649  	38.0059   	-21.487791  
 650  	38.0645   	-21.504089  
 651  	38.1232   	-21.511963  
 652  	38.1818   	-21.564756  
 653  	38.2405   	-21.477722  
 654  	38.2991   	-21.444031  
 655  	38.3578   	-21.442869  
 656  	38.4164   	-21.470398  
 657  	38.4751   	-21.542297  
 658  	38.5337   	-21.424376  
 659  	38.5924   	-21.499573  
 660  	38.6510   	-21.447935  
 661  	38.7097   	-21.429382  
 662  	38.7683   	-21.471495  
 663  	38.8270   	-21.494566  
 664  	38.8856   	-21.446226  
 665  	38.9443   	-21.484983  
 666  	39.0029   	-21.557981  
 667  	39.0616   	-21.511414  
 668  	39.1202   	-21.565855  
 669  	39.1789   	-21.511963  
 670  	39.2375   	-21.504639  
 671  	39.2962   	-21.446226  
 672  	39.3548   	-21.437256  
 673  	39.4135   	-21.380003  
 674  	39.4721   	-21.423767  
 675  	39.5308   	-21.396851  
 676  	39.5894   	-21.369322  
 677  	39.6481   	-21.419310  
 678  	39.7067   	-21.445677  
 679  	39.7654   	-21.409178  
 680  	39.8240   	-21.290161  
 681  	39.8827   	-21.412537  
 682  	39.9413   	-21.364258  
 683  	40.0000   	-21.363159  
 684  	40.0587   	-21.335083  
 685  	40.1173   	-21.331726  
 686  	40.1760   	-21.319336  
 687  	40.2346   	-21.345154  
 688  	40.2933   	-21.458616  
 689  	40.3519   	-21.375486  
 690  	40.4106   	-21.383911  
 691  	40.4692   	-21.432190  
 692  	40.5279   	-21.405273  
 693  	40.5865   	-21.403563  
 694  	40.6452   	-21.494566  
 695  	40.7038   	-21.439514  
 696  	40.7625   	-21.387877  
 697  	40.8211   	-21.327209  
 698  	40.8798   	-21.265440  
 699  	40.9384   	-21.339539  
 700  	40.9971   	-21.281738  
 701  	41.0557   	-21.292419  
 702  	41.1144   	-21.159300  
 703  	41.1730   	-21.079590  
 704  	41.2317   	-21.123352  
 705  	41.2903   	-21.141357  
 706  	41.3490   	-21.173340  
 707  	41.4076   	-21.172791  
 708  	41.4663   	-21.181213  
 709  	41.5249   	-21.251953  
 710  	41.5836   	-21.326660  
 711  	41.6422   	-21.316528  
 712  	41.7009   	-21.386719  
 713  	41.7595   	-21.400208  
 714  	41.8182   	-21.367613  
 715  	41.8768   	-21.318787  
 716  	41.9355   	-21.263182  
 717  	41.9941   	-21.167725  
 718  	42.0528   	-21.213196  
 719  	42.1114   	-21.130676  
 720  	42.1701   	-21.185118  
 721  	42.2287   	-21.180664  
 722  	42.2874   	-21.159300  
 723  	42.3460   	-21.100342  
 724  	42.4047   	-21.134583  
 725  	42.4633   	-21.259825  
 726  	42.5220   	-21.186279  
 727  	42.5806   	-21.265989  
 728  	42.6393   	-21.277222  
 729  	42.6979   	-21.312071  
 730  	42.7566   	-21.287354  
 731  	42.8152   	-21.298584  
 732  	42.8739   	-21.335083  
 733  	42.9326   	-21.302488  
 734  	42.9912   	-21.243530  
 735  	43.0499   	-21.234556  
 736  	43.1085   	-21.243530  
 737  	43.1672   	-21.259277  
 738  	43.2258   	-21.325499  
 739  	43.2845   	-21.274963  
 740  	43.3431   	-21.282288  
 741  	43.4018   	-21.351929  
 742  	43.4604   	-21.357544  
 743  	43.5191   	-21.418760  
 744  	43.5777   	-21.410339  
 745  	43.6364   	-21.365417  
 746  	43.6950   	-21.388428  
 747  	43.7537   	-21.361450  
 748  	43.8123   	-21.363159  
 749  	43.8710   	-21.450743  
 750  	43.9296   	-21.478819  
 751  	43.9883   	-21.494566  
 752  	44.0469   	-21.375486  
 753  	44.1056   	-21.449646  
 754  	44.1642   	-21.450193  
 755  	44.2229   	-21.495667  
 756  	44.2815   	-21.474915  
 757  	44.3402   	-21.487791  
 758  	44.3988   	-21.444580  
 759  	44.4575   	-21.450193  
 760  	44.5161   	-21.502380  
 761  	44.5748   	-21.551817  
 762  	44.6334   	-21.597288  
 763  	44.6921   	-21.607422  
 764  	44.7507   	-21.624815  
 765  	44.8094   	-21.594481  
 766  	44.8680   	-21.549011  
 767  	44.9267   	-21.468140  
 768  	44.9853   	-21.506897  
 769  	45.0440   	-21.469849  
 770  	45.1026   	-21.496216  
 771  	45.1613   	-21.585510  
 772  	45.2199   	-21.674803  
 773  	45.2786   	-21.714109  
 774  	45.3372   	-21.733765  
 775  	45.3959   	-21.768553  
 776  	45.4545   	-21.807312  
 777  	45.5132   	-21.848328  
 778  	45.5718   	-21.761841  
 779  	45.6305   	-21.830872  
 780  	45.6891   	-21.839905  
 781  	45.7478   	-21.834290  
 782  	45.8065   	-21.782593  
 783  	45.8651   	-21.864563  
 784  	45.9238   	-21.853333  
 785  	45.9824   	-21.865723  
 786  	46.0411   	-21.801147  
 787  	46.0997   	-21.770813  
 788  	46.1584   	-21.761292  
 789  	46.2170   	-21.784300  
 790  	46.2757   	-21.803955  
 791  	46.3343   	-21.737669  
 792  	46.3930   	-21.783751  
 793  	46.4516   	-21.816833  
 794  	46.5103   	-21.833679  
 795  	46.5689   	-21.805052  
 796  	46.6276   	-21.772522  
 797  	46.6862   	-21.803406  
 798  	46.7449   	-21.765747  
 799  	46.8035   	-21.809570  
 800  	46.8622   	-21.813475  
 801  	46.9208   	-21.816282  
 802  	46.9795   	-21.817991  
 803  	47.0381   	-21.857847  
 804  	47.0968   	-21.818541  
 805  	47.1554   	-21.793274  
 806  	47.2141   	-21.791016  
 807  	47.2727   	-21.782593  
 808  	47.3314   	-21.660217  
 809  	47.3900   	-21.463074  
 810  	47.4487   	-21.327759  
 811  	47.5073   	-21.067810  
 812  	47.5660   	-20.855530  
 813  	47.6246   	-20.516357  
 814  	47.6833   	-20.063231  
 815  	47.7419   	-19.944151  
 816  	47.8006   	-20.087952  
 817  	47.8592   	-20.254150  
 818  	47.9179   	-20.465269  
 819  	47.9765   	-20.546143  
 820  	48.0352   	-20.620239  
 821  	48.0938   	-20.603392  
 822  	48.1525   	-20.667419  
 823  	48.2111   	-20.711243  
 824  	48.2698   	-20.848206  
 825  	48.3284   	-20.929075  
 826  	48.3871   	-20.959412  
 827  	48.4457   	-20.994202  
 828  	48.5044   	-20.975157  
 829  	48.5630   	-21.043091  
 830  	48.6217   	-21.004881  
 831  	48.6804   	-21.082396  
 832  	48.7390   	-21.069458  
 833  	48.7977   	-21.032410  
 834  	48.8563   	-21.103699  
 835  	48.9150   	-21.095276  
 836  	48.9736   	-21.160460  
 837  	49.0323   	-21.163816  
 838  	49.0909   	-21.136292  
 839  	49.1496   	-21.164917  
 840  	49.2082   	-21.149231  
 841  	49.2669   	-21.192991  
 842  	49.3255   	-21.139648  
 843  	49.3842   	-21.108215  
 844  	49.4428   	-21.064392  
 845  	49.5015   	-21.118347  
 846  	49.5601   	-21.154234  
 847  	49.6188   	-21.254761  
 848  	49.6774   	-21.263182  
 849  	49.7361   	-21.250854  
 850  	49.7947   	-21.218809  
 851  	49.8534   	-21.239073  
 852  	49.9120   	-21.270506  
 853  	49.9707   	-21.227844  
 854  	50.0293   	-21.218262  
 855  	50.0880   	-21.278931  
 856  	50.1466   	-21.298035  
 857  	50.2053   	-21.387877  
 858  	50.2639   	-21.383362  
 859  	50.3226   	-21.378845  
 860  	50.3812   	-21.361998  
 861  	50.4399   	-21.323853  
 862  	50.4985   	-21.326660  
 863  	50.5572   	-21.266541  
 864  	50.6158   	-21.301390  
 865  	50.6745   	-21.272156  
 866  	50.7331   	-21.256470  
 867  	50.7918   	-21.223875  
 868  	50.8504   	-21.210388  
 869  	50.9091   	-21.175598  
 870  	50.9677   	-21.190184  
 871  	51.0264   	-21.268248  
 872  	51.0850   	-21.154846  
 873  	51.1437   	-21.165466  
 874  	51.2023   	-21.188538  
 875  	51.2610   	-21.190184  
 876  	51.3196   	-21.148069  
 877  	51.3783   	-21.069458  
 878  	51.4370   	-21.130125  
 879  	51.4956   	-21.080137  
 880  	51.5543   	-21.068909  
 881  	51.6129   	-21.157043  
 882  	51.6716   	-21.135742  
 883  	51.7302   	-21.127317  
 884  	51.7889   	-21.088560  
 885  	51.8475   	-21.124510  
 886  	51.9062   	-21.173889  
 887  	51.9648   	-21.143003  
 888  	52.0235   	-21.116089  
 889  	52.0821   	-21.049803  
 890  	52.1408   	-21.098083  
 891  	52.1994   	-21.108765  
 892  	52.2581   	-21.118347  
 893  	52.3167   	-21.166624  
 894  	52.3754   	-21.171082  
 895  	52.4340   	-21.159300  
 896  	52.4927   	-21.117186  
 897  	52.5513   	-21.180664  
 898  	52.6100   	-21.244688  
 899  	52.6686   	-21.293518  
 900  	52.7273   	-21.244080  
 901  	52.7859   	-21.289000  
 902  	52.8446   	-21.164368  
 903  	52.9032   	-21.174500  
 904  	52.9619   	-21.235107  
 905  	53.0205   	-21.216614  
 906  	53.0792   	-21.222229  
 907  	53.1378   	-21.332275  
 908  	53.1965   	-21.368225  
 909  	53.2551   	-21.409727  
 910  	53.3138   	-21.386169  
 911  	53.3724   	-21.255308  
 912  	53.4311   	-21.235657  
 913  	53.4897   	-21.228392  
 914  	53.5484   	-21.233458  
 915  	53.6070   	-21.214355  
 916  	53.6657   	-21.194700  
 917  	53.7243   	-21.214905  
 918  	53.7830   	-21.231749  
 919  	53.8416   	-21.236814  
 920  	53.9003   	-21.201416  
 921  	53.9589   	-21.172241  
 922  	54.0176   	-21.144714  
 923  	54.0762   	-21.228392  
 924  	54.1349   	-21.223326  
 925  	54.1935   	-21.304197  
 926  	54.2522   	-21.265989  
 927  	54.3109   	-21.284546  
 928  	54.3695   	-21.313721  
 929  	54.4282   	-21.242981  
 930  	54.4868   	-21.256470  
 931  	54.5455   	-21.274963  
 932  	54.6041   	-21.187925  
 933  	54.6628   	-21.182310  
 934  	54.7214   	-21.213196  
 935  	54.7801   	-21.171692  
 936  	54.8387   	-21.101501  
 937  	54.8974   	-21.118895  
 938  	54.9560   	-21.121153  
 939  	55.0147   	-21.045897  
 940  	55.0733   	-21.055420  
 941  	55.1320   	-21.126768  
 942  	55.1906   	-21.152588  
 943  	55.2493   	-21.200315  
 944  	55.3079   	-21.114927  
 945  	55.3666   	-21.096985  
 946  	55.4252   	-21.141907  
 947  	55.4839   	-21.214905  
 948  	55.5425   	-21.199158  
 949  	55.6012   	-21.229490  
 950  	55.6598   	-21.168882  
 951  	55.7185   	-21.163816  
 952  	55.7771   	-21.205381  
 953  	55.8358   	-21.182310  
 954  	55.8944   	-21.174500  
 955  	55.9531   	-21.143616  
 956  	56.0117   	-20.989197  
 957  	56.0704   	-20.989197  
 958  	56.1290   	-21.026245  
 959  	56.1877   	-20.982971  
 960  	56.2463   	-21.043091  
 961  	56.3050   	-20.996460  
 962  	56.3636   	-21.034119  
 963  	56.4223   	-21.034668  
 964  	56.4809   	-21.078428  
 965  	56.5396   	-21.035767  
 966  	56.5982   	-21.032959  
 967  	56.6569   	-21.047546  
 968  	56.7155   	-21.116636  
 969  	56.7742   	-21.092468  
 970  	56.8328   	-21.062744  
 971  	56.8915   	-21.028503  
 972  	56.9501   	-21.021179  
 973  	57.0088   	-20.998169  
 974  	57.0674   	-21.038572  
 975  	57.1261   	-21.041929  
 976  	57.1848   	-21.058777  
 977  	57.2434   	-21.069458  
 978  	57.3021   	-21.065552  
 979  	57.3607   	-21.084654  
 980  	57.4194   	-21.085203  
 981  	57.4780   	-21.076782  
 982  	57.5367   	-21.040283  
 983  	57.5953   	-21.045897  
 984  	57.6540   	-21.029602  
 985  	57.7126   	-21.048704  
 986  	57.7713   	-21.008238  
 987  	57.8299   	-21.091370  
 988  	57.8886   	-21.047546  
 989  	57.9472   	-20.989197  
 990  	58.0059   	-20.862854  
 991  	58.0645   	-20.835876  
 992  	58.1232   	-20.893738  
 993  	58.1818   	-20.820740  
 994  	58.2405   	-20.835876  
 995  	58.2991   	-20.840942  
 996  	58.3578   	-20.847656  
 997  	58.4164   	-20.893126  
 998  	58.4751   	-20.976807  
 999  	58.5337   	-21.046446  
 1000 	58.5924   	-20.971189  
 1001 	58.6510   	-20.906065  
 1002 	58.7097   	-20.953247  
 1003 	58.7683   	-20.943665  
 1004 	58.8270   	-20.932432  
 1005 	58.8856   	-20.974548  
 1006 	58.9443   	-20.982422  
 1007 	59.0029   	-20.917297  
 1008 	59.0616   	-20.847656  
 1009 	59.1202   	-20.899353  
 1010 	59.1789   	-20.943665  
 1011 	59.2375   	-20.956055  
 1012 	59.2962   	-20.973997  
 1013 	59.3548   	-20.939207  
 1014 	59.4135   	-20.937498  
 1015 	59.4721   	-20.976255  
 1016 	59.5308   	-20.961121  
 1017 	59.5894   	-20.862854  
 1018 	59.6481   	-20.893738  
 1019 	59.7067   	-20.895933  
 1020 	59.7654   	-20.851624  
 1021 	59.8240   	-20.885864  
 1022 	59.8827   	-20.784241  
 1023 	59.9413   	-20.815125  
 1024 	60.0000   	-20.794312  

