
      	X(nS)     	Ch1(mV)      


 1    	0.0000    	-19.355164  
 2    	0.0489    	-19.265320  
 3    	0.0978    	-19.368652  
 4    	0.1466    	-19.395569  
 5    	0.1955    	-19.251831  
 6    	0.2444    	-19.316956  
 7    	0.2933    	-19.534851  
 8    	0.3421    	-19.494385  
 9    	0.3910    	-19.469727  
 10   	0.4399    	-19.635925  
 11   	0.4888    	-19.570799  
 12   	0.5376    	-19.667358  
 13   	0.5865    	-19.788635  
 14   	0.6354    	-19.853760  
 15   	0.6843    	-19.725769  
 16   	0.7331    	-19.743713  
 17   	0.7820    	-19.745972  
 18   	0.8309    	-19.853760  
 19   	0.8798    	-19.698792  
 20   	0.9286    	-19.674072  
 21   	0.9775    	-19.651611  
 22   	1.0264    	-19.624695  
 23   	1.0753    	-19.528076  
 24   	1.1241    	-19.386597  
 25   	1.1730    	-19.433777  
 26   	1.2219    	-19.561768  
 27   	1.2708    	-19.606689  
 28   	1.3196    	-19.498901  
 29   	1.3685    	-19.552795  
 30   	1.4174    	-19.588745  
 31   	1.4663    	-19.528076  
 32   	1.5152    	-19.566284  
 33   	1.5640    	-19.543823  
 34   	1.6129    	-19.595459  
 35   	1.6618    	-19.649414  
 36   	1.7107    	-19.577515  
 37   	1.7595    	-19.501160  
 38   	1.8084    	-19.440491  
 39   	1.8573    	-19.564026  
 40   	1.9062    	-19.615723  
 41   	1.9550    	-19.732483  
 42   	2.0039    	-19.683105  
 43   	2.0528    	-19.793152  
 44   	2.1017    	-19.718994  
 45   	2.1505    	-19.635925  
 46   	2.1994    	-19.469727  
 47   	2.2483    	-19.460693  
 48   	2.2972    	-19.647156  
 49   	2.3460    	-19.665100  
 50   	2.3949    	-19.882996  
 51   	2.4438    	-19.611206  
 52   	2.4927    	-19.710022  
 53   	2.5415    	-19.591003  
 54   	2.5904    	-19.743713  
 55   	2.6393    	-19.669617  
 56   	2.6882    	-19.680847  
 57   	2.7370    	-19.665100  
 58   	2.7859    	-19.546082  
 59   	2.8348    	-19.635925  
 60   	2.8837    	-19.582031  
 61   	2.9326    	-19.676331  
 62   	2.9814    	-19.629150  
 63   	3.0303    	-19.732483  
 64   	3.0792    	-19.772949  
 65   	3.1281    	-19.514648  
 66   	3.1769    	-19.752686  
 67   	3.2258    	-19.595459  
 68   	3.2747    	-19.737000  
 69   	3.3236    	-19.572998  
 70   	3.3724    	-19.516846  
 71   	3.4213    	-19.629150  
 72   	3.4702    	-19.763916  
 73   	3.5191    	-19.611206  
 74   	3.5679    	-19.701050  
 75   	3.6168    	-19.698792  
 76   	3.6657    	-19.730225  
 77   	3.7146    	-19.754944  
 78   	3.7634    	-19.593262  
 79   	3.8123    	-19.523621  
 80   	3.8612    	-19.653870  
 81   	3.9101    	-19.537109  
 82   	3.9589    	-19.694336  
 83   	4.0078    	-19.546082  
 84   	4.0567    	-19.541565  
 85   	4.1056    	-19.579773  
 86   	4.1544    	-19.617920  
 87   	4.2033    	-19.507874  
 88   	4.2522    	-19.557312  
 89   	4.3011    	-19.370850  
 90   	4.3500    	-19.229370  
 91   	4.3988    	-19.350647  
 92   	4.4477    	-19.272034  
 93   	4.4966    	-19.236084  
 94   	4.5455    	-19.020508  
 95   	4.5943    	-19.038452  
 96   	4.6432    	-19.063171  
 97   	4.6921    	-18.935120  
 98   	4.7410    	-18.845276  
 99   	4.7898    	-18.856506  
 100  	4.8387    	-18.854248  
 101  	4.8876    	-18.764404  
 102  	4.9365    	-18.829590  
 103  	4.9853    	-18.786865  
 104  	5.0342    	-18.807129  
 105  	5.0831    	-18.816101  
 106  	5.1320    	-18.764404  
 107  	5.1808    	-18.847534  
 108  	5.2297    	-18.921631  
 109  	5.2786    	-18.827332  
 110  	5.3275    	-19.063171  
 111  	5.3763    	-19.179930  
 112  	5.4252    	-19.204651  
 113  	5.4741    	-19.130554  
 114  	5.5230    	-19.096863  
 115  	5.5718    	-18.908203  
 116  	5.6207    	-18.827332  
 117  	5.6696    	-19.040710  
 118  	5.7185    	-19.051941  
 119  	5.7674    	-18.975586  
 120  	5.8162    	-18.923889  
 121  	5.8651    	-18.944092  
 122  	5.9140    	-18.827332  
 123  	5.9629    	-18.982300  
 124  	6.0117    	-19.024963  
 125  	6.0606    	-19.114807  
 126  	6.1095    	-19.105835  
 127  	6.1584    	-18.908203  
 128  	6.2072    	-18.876709  
 129  	6.2561    	-18.712769  
 130  	6.3050    	-18.825073  
 131  	6.3539    	-18.881226  
 132  	6.4027    	-18.995789  
 133  	6.4516    	-19.130554  
 134  	6.5005    	-19.099121  
 135  	6.5494    	-18.975586  
 136  	6.5982    	-18.802612  
 137  	6.6471    	-18.903687  
 138  	6.6960    	-18.881226  
 139  	6.7449    	-18.998047  
 140  	6.7937    	-18.912659  
 141  	6.8426    	-18.867737  
 142  	6.8915    	-18.692566  
 143  	6.9404    	-18.681335  
 144  	6.9892    	-18.746460  
 145  	7.0381    	-18.883484  
 146  	7.0870    	-18.887939  
 147  	7.1359    	-18.802612  
 148  	7.1848    	-19.042969  
 149  	7.2336    	-19.119324  
 150  	7.2825    	-19.078857  
 151  	7.3314    	-19.042969  
 152  	7.3803    	-19.105835  
 153  	7.4291    	-19.222656  
 154  	7.4780    	-19.121582  
 155  	7.5269    	-19.236084  
 156  	7.5758    	-19.150757  
 157  	7.6246    	-19.139526  
 158  	7.6735    	-19.099121  
 159  	7.7224    	-19.051941  
 160  	7.7713    	-19.141785  
 161  	7.8201    	-19.094604  
 162  	7.8690    	-19.144043  
 163  	7.9179    	-19.047424  
 164  	7.9668    	-19.092346  
 165  	8.0156    	-19.069885  
 166  	8.0645    	-19.002502  
 167  	8.1134    	-19.179930  
 168  	8.1623    	-19.078857  
 169  	8.2111    	-19.047424  
 170  	8.2600    	-19.159729  
 171  	8.3089    	-19.146240  
 172  	8.3578    	-19.022705  
 173  	8.4066    	-18.968811  
 174  	8.4555    	-19.072144  
 175  	8.5044    	-19.157471  
 176  	8.5533    	-19.114807  
 177  	8.6022    	-19.137268  
 178  	8.6510    	-19.112549  
 179  	8.6999    	-18.968811  
 180  	8.7488    	-19.137268  
 181  	8.7977    	-19.013733  
 182  	8.8465    	-19.069885  
 183  	8.8954    	-19.105835  
 184  	8.9443    	-19.078857  
 185  	8.9932    	-19.135010  
 186  	9.0420    	-19.153015  
 187  	9.0909    	-19.110352  
 188  	9.1398    	-19.175476  
 189  	9.1887    	-19.206909  
 190  	9.2375    	-19.213623  
 191  	9.2864    	-19.121582  
 192  	9.3353    	-19.236084  
 193  	9.3842    	-19.155273  
 194  	9.4330    	-19.220398  
 195  	9.4819    	-19.137268  
 196  	9.5308    	-19.197937  
 197  	9.5797    	-19.128296  
 198  	9.6285    	-19.081116  
 199  	9.6774    	-19.074402  
 200  	9.7263    	-19.119324  
 201  	9.7752    	-18.957581  
 202  	9.8240    	-18.903687  
 203  	9.8729    	-19.000244  
 204  	9.9218    	-18.984558  
 205  	9.9707    	-18.993530  
 206  	10.0196   	-18.930664  
 207  	10.0684   	-18.899170  
 208  	10.1173   	-19.049683  
 209  	10.1662   	-19.085632  
 210  	10.2151   	-19.101318  
 211  	10.2639   	-19.069885  
 212  	10.3128   	-19.020508  
 213  	10.3617   	-19.031738  
 214  	10.4106   	-19.042969  
 215  	10.4594   	-19.182188  
 216  	10.5083   	-19.283264  
 217  	10.5572   	-19.346191  
 218  	10.6061   	-19.276550  
 219  	10.6549   	-19.283264  
 220  	10.7038   	-19.359619  
 221  	10.7527   	-19.247314  
 222  	10.8016   	-19.290039  
 223  	10.8504   	-19.130554  
 224  	10.8993   	-18.928406  
 225  	10.9482   	-18.962097  
 226  	10.9971   	-19.049683  
 227  	11.0459   	-19.123779  
 228  	11.0948   	-19.249573  
 229  	11.1437   	-19.249573  
 230  	11.1926   	-19.060913  
 231  	11.2414   	-19.108093  
 232  	11.2903   	-18.980042  
 233  	11.3392   	-19.119324  
 234  	11.3881   	-19.085632  
 235  	11.4370   	-18.971069  
 236  	11.4858   	-18.852051  
 237  	11.5347   	-18.964355  
 238  	11.5836   	-19.056396  
 239  	11.6325   	-18.890198  
 240  	11.6813   	-19.076660  
 241  	11.7302   	-19.083374  
 242  	11.7791   	-19.038452  
 243  	11.8280   	-19.042969  
 244  	11.8768   	-18.944092  
 245  	11.9257   	-18.941895  
 246  	11.9746   	-19.150757  
 247  	12.0235   	-18.881226  
 248  	12.0723   	-19.009277  
 249  	12.1212   	-18.867737  
 250  	12.1701   	-19.007019  
 251  	12.2190   	-18.919434  
 252  	12.2678   	-18.793640  
 253  	12.3167   	-18.872253  
 254  	12.3656   	-18.910400  
 255  	12.4145   	-18.962097  
 256  	12.4633   	-19.128296  
 257  	12.5122   	-19.123779  
 258  	12.5611   	-19.179930  
 259  	12.6100   	-19.139526  
 260  	12.6588   	-19.148499  
 261  	12.7077   	-19.184446  
 262  	12.7566   	-19.119324  
 263  	12.8055   	-19.296753  
 264  	12.8544   	-19.051941  
 265  	12.9032   	-19.105835  
 266  	12.9521   	-19.101318  
 267  	13.0010   	-19.155273  
 268  	13.0499   	-19.009277  
 269  	13.0987   	-18.878967  
 270  	13.1476   	-18.998047  
 271  	13.1965   	-18.825073  
 272  	13.2454   	-18.881226  
 273  	13.2942   	-18.786865  
 274  	13.3431   	-18.926147  
 275  	13.3920   	-18.768921  
 276  	13.4409   	-18.804871  
 277  	13.4897   	-18.777893  
 278  	13.5386   	-18.869995  
 279  	13.5875   	-18.917175  
 280  	13.6364   	-18.865479  
 281  	13.6852   	-18.905945  
 282  	13.7341   	-18.923889  
 283  	13.7830   	-19.042969  
 284  	13.8319   	-19.056396  
 285  	13.8807   	-18.903687  
 286  	13.9296   	-18.995789  
 287  	13.9785   	-19.004761  
 288  	14.0274   	-18.901428  
 289  	14.0762   	-18.643127  
 290  	14.1251   	-18.744202  
 291  	14.1740   	-18.706055  
 292  	14.2229   	-18.656616  
 293  	14.2718   	-18.607178  
 294  	14.3206   	-18.598206  
 295  	14.3695   	-18.573486  
 296  	14.4184   	-18.620667  
 297  	14.4673   	-18.670105  
 298  	14.5161   	-18.748718  
 299  	14.5650   	-18.625183  
 300  	14.6139   	-18.636414  
 301  	14.6628   	-18.575745  
 302  	14.7116   	-18.560059  
 303  	14.7605   	-18.708252  
 304  	14.8094   	-18.674561  
 305  	14.8583   	-18.822815  
 306  	14.9071   	-18.658875  
 307  	14.9560   	-18.759949  
 308  	15.0049   	-18.766663  
 309  	15.0538   	-18.717285  
 310  	15.1026   	-18.613953  
 311  	15.1515   	-18.706055  
 312  	15.2004   	-18.618408  
 313  	15.2493   	-18.649902  
 314  	15.2981   	-18.434265  
 315  	15.3470   	-18.427490  
 316  	15.3959   	-18.321960  
 317  	15.4448   	-18.319702  
 318  	15.4936   	-18.303955  
 319  	15.5425   	-18.207397  
 320  	15.5914   	-18.153503  
 321  	15.6403   	-18.214111  
 322  	15.6892   	-18.148987  
 323  	15.7380   	-17.985046  
 324  	15.7869   	-17.758179  
 325  	15.8358   	-17.892944  
 326  	15.8847   	-17.919922  
 327  	15.9335   	-17.937866  
 328  	15.9824   	-18.034424  
 329  	16.0313   	-17.922119  
 330  	16.0802   	-17.639160  
 331  	16.1290   	-17.401062  
 332  	16.1779   	-17.203369  
 333  	16.2268   	-16.976563  
 334  	16.2757   	-16.543030  
 335  	16.3245   	-16.026428  
 336  	16.3734   	-15.435730  
 337  	16.4223   	-14.678772  
 338  	16.4712   	-13.124511  
 339  	16.5200   	-11.320862  
 340  	16.5689   	-9.860901   
 341  	16.6178   	-8.537964   
 342  	16.6667   	-7.661987   
 343  	16.7155   	-7.091491   
 344  	16.7644   	-6.525451   
 345  	16.8133   	-5.180054   
 346  	16.8622   	0.235291    
 347  	16.9110   	25.005188   
 348  	16.9599   	47.445923   
 349  	17.0088   	63.725582   
 350  	17.0577   	76.261108   
 351  	17.1066   	85.267944   
 352  	17.1554   	91.862427   
 353  	17.2043   	96.830811   
 354  	17.2532   	100.163940  
 355  	17.3021   	102.558342  
 356  	17.3509   	104.719109  
 357  	17.3998   	106.286858  
 358  	17.4487   	107.937744  
 359  	17.4976   	109.139404  
 360  	17.5464   	110.300659  
 361  	17.5953   	110.880119  
 362  	17.6442   	111.327019  
 363  	17.6931   	111.870598  
 364  	17.7419   	112.268181  
 365  	17.7908   	112.596062  
 366  	17.8397   	112.899292  
 367  	17.8886   	113.234009  
 368  	17.9374   	113.523804  
 369  	17.9863   	113.817993  
 370  	18.0352   	113.919067  
 371  	18.0841   	114.062859  
 372  	18.1329   	114.269409  
 373  	18.1818   	114.900635  
 374  	18.2307   	115.295898  
 375  	18.2796   	115.747429  
 376  	18.3284   	116.028198  
 377  	18.3773   	116.484138  
 378  	18.4262   	116.859245  
 379  	18.4751   	116.910889  
 380  	18.5239   	116.823242  
 381  	18.5728   	117.178093  
 382  	18.6217   	117.292725  
 383  	18.6706   	117.452148  
 384  	18.7195   	117.604851  
 385  	18.7683   	117.723999  
 386  	18.8172   	117.921638  
 387  	18.8661   	117.798096  
 388  	18.9150   	117.638550  
 389  	18.9638   	117.795776  
 390  	19.0127   	117.885620  
 391  	19.0616   	118.096802  
 392  	19.1105   	118.341675  
 393  	19.1593   	118.505608  
 394  	19.2082   	118.435905  
 395  	19.2571   	118.647095  
 396  	19.3060   	118.644890  
 397  	19.3548   	118.815552  
 398  	19.4037   	118.813347  
 399  	19.4526   	118.653801  
 400  	19.5015   	118.346069  
 401  	19.5503   	118.218132  
 402  	19.5992   	118.128288  
 403  	19.6481   	117.975464  
 404  	19.6970   	117.917114  
 405  	19.7458   	117.919312  
 406  	19.7947   	117.831779  
 407  	19.8436   	117.735229  
 408  	19.8925   	117.867676  
 409  	19.9413   	117.928345  
 410  	19.9902   	118.040642  
 411  	20.0391   	117.975464  
 412  	20.0880   	118.117058  
 413  	20.1369   	117.948601  
 414  	20.1857   	118.179939  
 415  	20.2346   	118.384277  
 416  	20.2835   	118.539307  
 417  	20.3324   	118.685310  
 418  	20.3812   	118.656128  
 419  	20.4301   	118.624626  
 420  	20.4790   	118.795280  
 421  	20.5279   	118.855957  
 422  	20.5767   	118.826782  
 423  	20.6256   	118.853752  
 424  	20.6745   	118.900879  
 425  	20.7234   	118.880730  
 426  	20.7722   	119.008667  
 427  	20.8211   	119.031120  
 428  	20.8700   	119.251343  
 429  	20.9189   	119.132195  
 430  	20.9677   	119.076050  
 431  	21.0166   	119.206421  
 432  	21.0655   	119.307487  
 433  	21.1144   	119.365845  
 434  	21.1632   	119.201904  
 435  	21.2121   	119.307487  
 436  	21.2610   	119.347893  
 437  	21.3099   	119.204102  
 438  	21.3587   	119.156982  
 439  	21.4076   	119.013176  
 440  	21.4565   	119.255737  
 441  	21.5054   	119.170403  
 442  	21.5543   	119.001945  
 443  	21.6031   	118.939087  
 444  	21.6520   	118.912102  
 445  	21.7009   	118.838013  
 446  	21.7498   	118.984009  
 447  	21.7986   	119.008667  
 448  	21.8475   	118.912102  
 449  	21.8964   	119.042351  
 450  	21.9453   	118.907593  
 451  	21.9941   	118.723503  
 452  	22.0430   	118.752678  
 453  	22.0919   	118.599976  
 454  	22.1408   	118.541504  
 455  	22.1896   	118.707764  
 456  	22.2385   	118.624626  
 457  	22.2874   	118.555046  
 458  	22.3363   	118.763908  
 459  	22.3851   	118.766113  
 460  	22.4340   	118.739136  
 461  	22.4829   	118.626823  
 462  	22.5318   	118.453972  
 463  	22.5806   	118.337151  
 464  	22.6295   	118.256226  
 465  	22.6784   	118.240601  
 466  	22.7273   	118.204590  
 467  	22.7761   	118.442749  
 468  	22.8250   	118.550537  
 469  	22.8739   	118.584221  
 470  	22.9228   	118.530273  
 471  	22.9717   	118.593140  
 472  	23.0205   	118.581909  
 473  	23.0694   	118.534782  
 474  	23.1183   	118.563965  
 475  	23.1672   	118.397827  
 476  	23.2160   	118.296745  
 477  	23.2649   	118.033936  
 478  	23.3138   	117.831779  
 479  	23.3627   	117.744148  
 480  	23.4115   	117.483635  
 481  	23.4604   	117.447632  
 482  	23.5093   	117.422974  
 483  	23.5582   	117.166862  
 484  	23.6070   	116.987183  
 485  	23.6559   	117.144409  
 486  	23.7048   	117.034424  
 487  	23.7537   	116.906372  
 488  	23.8025   	116.753662  
 489  	23.8514   	116.612190  
 490  	23.9003   	116.535767  
 491  	23.9492   	116.151733  
 492  	23.9980   	116.144890  
 493  	24.0469   	115.877678  
 494  	24.0958   	115.904663  
 495  	24.1447   	115.718140  
 496  	24.1935   	115.619377  
 497  	24.2424   	115.369995  
 498  	24.2913   	115.012932  
 499  	24.3402   	114.990479  
 500  	24.3891   	114.914063  
 501  	24.4379   	114.824219  
 502  	24.4868   	114.862427  
 503  	24.5357   	114.880371  
 504  	24.5846   	114.839966  
 505  	24.6334   	114.768059  
 506  	24.6823   	114.680542  
 507  	24.7312   	114.610840  
 508  	24.7801   	114.550163  
 509  	24.8289   	114.375000  
 510  	24.8778   	114.298698  
 511  	24.9267   	114.204346  
 512  	24.9756   	114.235718  
 513  	25.0244   	114.442383  
 514  	25.0733   	114.473877  
 515  	25.1222   	114.538933  
 516  	25.1711   	114.604126  
 517  	25.2199   	114.808464  
 518  	25.2688   	114.909546  
 519  	25.3177   	114.963501  
 520  	25.3666   	114.891602  
 521  	25.4154   	114.765862  
 522  	25.4643   	114.855705  
 523  	25.5132   	114.788338  
 524  	25.5621   	114.759155  
 525  	25.6109   	114.752319  
 526  	25.6598   	114.678215  
 527  	25.7087   	114.705200  
 528  	25.7576   	114.532227  
 529  	25.8065   	114.682739  
 530  	25.8553   	114.507561  
 531  	25.9042   	114.628777  
 532  	25.9531   	114.891602  
 533  	26.0020   	115.096069  
 534  	26.0508   	115.408203  
 535  	26.0997   	115.466675  
 536  	26.1486   	115.585693  
 537  	26.1975   	115.446411  
 538  	26.2463   	115.430656  
 539  	26.2952   	115.392448  
 540  	26.3441   	115.134148  
 541  	26.3930   	115.156616  
 542  	26.4418   	115.010620  
 543  	26.4907   	114.925285  
 544  	26.5396   	115.125252  
 545  	26.5885   	114.862427  
 546  	26.6373   	114.666985  
 547  	26.6862   	114.545776  
 548  	26.7351   	114.417725  
 549  	26.7840   	114.251457  
 550  	26.8328   	114.325562  
 551  	26.8817   	114.330070  
 552  	26.9306   	114.112175  
 553  	26.9795   	114.029175  
 554  	27.0283   	114.188599  
 555  	27.0772   	114.130241  
 556  	27.1261   	113.997681  
 557  	27.1750   	113.838257  
 558  	27.2239   	113.613647  
 559  	27.2727   	113.207031  
 560  	27.3216   	112.890381  
 561  	27.3705   	112.699463  
 562  	27.4194   	112.432129  
 563  	27.4682   	111.794312  
 564  	27.5171   	111.358521  
 565  	27.5660   	110.718384  
 566  	27.6149   	110.024292  
 567  	27.6637   	109.372917  
 568  	27.7126   	108.573364  
 569  	27.7615   	107.928711  
 570  	27.8104   	107.048218  
 571  	27.8592   	106.190308  
 572  	27.9081   	105.572624  
 573  	27.9570   	104.871826  
 574  	28.0059   	103.982300  
 575  	28.0547   	102.850342  
 576  	28.1036   	101.839600  
 577  	28.1525   	101.080437  
 578  	28.2014   	100.024780  
 579  	28.2502   	99.339722   
 580  	28.2991   	98.398560   
 581  	28.3480   	97.666382   
 582  	28.3969   	97.174438   
 583  	28.4457   	96.466919   
 584  	28.4946   	95.703247   
 585  	28.5435   	95.112549   
 586  	28.5924   	94.378052   
 587  	28.6413   	93.457153   
 588  	28.6901   	92.435181   
 589  	28.7390   	91.417725   
 590  	28.7879   	90.332886   
 591  	28.8368   	89.288452   
 592  	28.8856   	87.985718   
 593  	28.9345   	86.855835   
 594  	28.9834   	85.687866   
 595  	29.0323   	84.380737   
 596  	29.0811   	83.307007   
 597  	29.1300   	82.071655   
 598  	29.1789   	80.883545   
 599  	29.2278   	79.623413   
 600  	29.2766   	78.327515   
 601  	29.3255   	76.948364   
 602  	29.3744   	75.773682   
 603  	29.4233   	74.414795   
 604  	29.4721   	73.260254   
 605  	29.5210   	72.094604   
 606  	29.5699   	71.124268   
 607  	29.6188   	70.129272   
 608  	29.6676   	68.988159   
 609  	29.7165   	68.035889   
 610  	29.7654   	66.798218   
 611  	29.8143   	65.623535   
 612  	29.8631   	64.397217   
 613  	29.9120   	62.939453   
 614  	29.9609   	61.486206   
 615  	30.0098   	59.884766   
 616  	30.0587   	58.209229   
 617  	30.1075   	56.702026   
 618  	30.1564   	54.950069   
 619  	30.2053   	52.939819   
 620  	30.2542   	51.244019   
 621  	30.3030   	49.546021   
 622  	30.3519   	47.702026   
 623  	30.4008   	45.941040   
 624  	30.4497   	44.440674   
 625  	30.4985   	42.412415   
 626  	30.5474   	40.076477   
 627  	30.5963   	38.131348   
 628  	30.6452   	36.597290   
 629  	30.6940   	34.847595   
 630  	30.7429   	33.376404   
 631  	30.7918   	31.606445   
 632  	30.8407   	30.346436   
 633  	30.8895   	28.810059   
 634  	30.9384   	27.597168   
 635  	30.9873   	26.236084   
 636  	31.0362   	25.146729   
 637  	31.0850   	24.052856   
 638  	31.1339   	22.864685   
 639  	31.1828   	21.631592   
 640  	31.2317   	20.468079   
 641  	31.2805   	19.437134   
 642  	31.3294   	18.554443   
 643  	31.3783   	17.638000   
 644  	31.4272   	16.685669   
 645  	31.4761   	15.888306   
 646  	31.5249   	14.877563   
 647  	31.5738   	13.963378   
 648  	31.6227   	13.089661   
 649  	31.6716   	12.146301   
 650  	31.7204   	11.434326   
 651  	31.7693   	10.439270   
 652  	31.8182   	9.502686    
 653  	31.8671   	8.689575    
 654  	31.9159   	7.806885    
 655  	31.9648   	6.766907    
 656  	32.0137   	5.677551    
 657  	32.0626   	4.617432    
 658  	32.1114   	3.483154    
 659  	32.1603   	2.342102    
 660  	32.2092   	1.221313    
 661  	32.2581   	0.257751    
 662  	32.3069   	-0.784424   
 663  	32.3558   	-1.806397   
 664  	32.4047   	-2.940674   
 665  	32.4536   	-3.818909   
 666  	32.5024   	-4.935242   
 667  	32.5513   	-5.950439   
 668  	32.6002   	-7.044312   
 669  	32.6491   	-7.760803   
 670  	32.6979   	-8.639038   
 671  	32.7468   	-9.319580   
 672  	32.7957   	-9.854187   
 673  	32.8446   	-10.260742  
 674  	32.8935   	-10.608887  
 675  	32.9423   	-10.813232  
 676  	32.9912   	-11.201843  
 677  	33.0401   	-11.435425  
 678  	33.0890   	-11.776855  
 679  	33.1378   	-12.089050  
 680  	33.1867   	-12.217041  
 681  	33.2356   	-12.536010  
 682  	33.2845   	-12.821289  
 683  	33.3333   	-12.938050  
 684  	33.3822   	-13.371582  
 685  	33.4311   	-13.638854  
 686  	33.4800   	-14.092529  
 687  	33.5288   	-14.604674  
 688  	33.5777   	-15.092041  
 689  	33.6266   	-15.431213  
 690  	33.6755   	-15.979248  
 691  	33.7243   	-16.320679  
 692  	33.7732   	-16.682312  
 693  	33.8221   	-17.068604  
 694  	33.8710   	-17.149475  
 695  	33.9198   	-17.463928  
 696  	33.9687   	-17.621155  
 697  	34.0176   	-17.850281  
 698  	34.0665   	-18.092834  
 699  	34.1153   	-18.330933  
 700  	34.1642   	-18.427490  
 701  	34.2131   	-18.483643  
 702  	34.2620   	-18.620667  
 703  	34.3109   	-18.748718  
 704  	34.3597   	-18.854248  
 705  	34.4086   	-18.955322  
 706  	34.4575   	-19.063171  
 707  	34.5064   	-19.121582  
 708  	34.5552   	-19.281006  
 709  	34.6041   	-19.393311  
 710  	34.6530   	-19.449463  
 711  	34.7019   	-19.467468  
 712  	34.7507   	-19.505615  
 713  	34.7996   	-19.469727  
 714  	34.8485   	-19.552795  
 715  	34.8974   	-19.633667  
 716  	34.9462   	-19.745972  
 717  	34.9951   	-19.685303  
 718  	35.0440   	-19.608948  
 719  	35.0929   	-19.763916  
 720  	35.1417   	-19.662842  
 721  	35.1906   	-19.683105  
 722  	35.2395   	-19.907715  
 723  	35.2884   	-20.049194  
 724  	35.3372   	-20.040222  
 725  	35.3861   	-20.073914  
 726  	35.4350   	-20.062683  
 727  	35.4839   	-20.094116  
 728  	35.5327   	-20.258057  
 729  	35.5816   	-20.327698  
 730  	35.6305   	-20.428772  
 731  	35.6794   	-20.487183  
 732  	35.7283   	-20.433289  
 733  	35.7771   	-20.395081  
 734  	35.8260   	-20.237854  
 735  	35.8749   	-20.314207  
 736  	35.9238   	-20.368164  
 737  	35.9726   	-20.444519  
 738  	36.0215   	-20.253601  
 739  	36.0704   	-20.136780  
 740  	36.1193   	-20.289551  
 741  	36.1681   	-20.276062  
 742  	36.2170   	-20.291748  
 743  	36.2659   	-20.305237  
 744  	36.3148   	-20.359131  
 745  	36.3636   	-20.327698  
 746  	36.4125   	-20.260315  
 747  	36.4614   	-20.255859  
 748  	36.5103   	-20.087402  
 749  	36.5591   	-20.143555  
 750  	36.6080   	-20.282776  
 751  	36.6569   	-20.150269  
 752  	36.7058   	-20.130066  
 753  	36.7546   	-20.204163  
 754  	36.8035   	-20.269287  
 755  	36.8524   	-20.105347  
 756  	36.9013   	-20.022217  
 757  	36.9501   	-19.954834  
 758  	36.9990   	-20.042480  
 759  	37.0479   	-20.091858  
 760  	37.0968   	-20.046936  
 761  	37.1457   	-19.986328  
 762  	37.1945   	-20.105347  
 763  	37.2434   	-19.813354  
 764  	37.2923   	-19.714539  
 765  	37.3412   	-19.272034  
 766  	37.3900   	-18.863281  
 767  	37.4389   	-18.283752  
 768  	37.4878   	-17.526855  
 769  	37.5367   	-17.106812  
 770  	37.5855   	-16.502625  
 771  	37.6344   	-15.846741  
 772  	37.6833   	-15.168456  
 773  	37.7322   	-14.328369  
 774  	37.7810   	-11.621826  
 775  	37.8299   	-0.166748   
 776  	37.8788   	8.220154    
 777  	37.9277   	12.534912   
 778  	37.9765   	13.363708   
 779  	38.0254   	12.103638   
 780  	38.0743   	10.488708   
 781  	38.1232   	8.141541    
 782  	38.1720   	5.185669    
 783  	38.2209   	2.878906    
 784  	38.2698   	0.399231    
 785  	38.3187   	-1.761475   
 786  	38.3675   	-3.634766   
 787  	38.4164   	-5.150879   
 788  	38.4653   	-6.799499   
 789  	38.5142   	-8.304382   
 790  	38.5631   	-9.573425   
 791  	38.6119   	-10.608887  
 792  	38.6608   	-11.583679  
 793  	38.7097   	-12.345093  
 794  	38.7586   	-12.944825  
 795  	38.8074   	-13.504088  
 796  	38.8563   	-14.137451  
 797  	38.9052   	-14.544006  
 798  	38.9541   	-14.957274  
 799  	39.0029   	-15.406494  
 800  	39.0518   	-15.478394  
 801  	39.1007   	-15.810791  
 802  	39.1496   	-16.026428  
 803  	39.1984   	-16.383545  
 804  	39.2473   	-16.513855  
 805  	39.2962   	-16.614929  
 806  	39.3451   	-16.700256  
 807  	39.3939   	-16.987793  
 808  	39.4428   	-17.156250  
 809  	39.4917   	-17.052917  
 810  	39.5406   	-17.113525  
 811  	39.5894   	-16.963074  
 812  	39.6383   	-17.102295  
 813  	39.6872   	-17.356140  
 814  	39.7361   	-17.308960  
 815  	39.7849   	-17.441467  
 816  	39.8338   	-17.668335  
 817  	39.8827   	-17.744690  
 818  	39.9316   	-17.650391  
 819  	39.9805   	-17.702026  
 820  	40.0293   	-17.830078  
 821  	40.0782   	-18.020996  
 822  	40.1271   	-18.099609  
 823  	40.1760   	-18.146729  
 824  	40.2248   	-18.216370  
 825  	40.2737   	-18.169189  
 826  	40.3226   	-18.202881  
 827  	40.3715   	-18.411804  
 828  	40.4203   	-18.467957  
 829  	40.4692   	-18.492676  
 830  	40.5181   	-18.542053  
 831  	40.5670   	-18.748718  
 832  	40.6158   	-18.795898  
 833  	40.6647   	-18.795898  
 834  	40.7136   	-18.676819  
 835  	40.7625   	-18.753174  
 836  	40.8113   	-18.524109  
 837  	40.8602   	-18.663330  
 838  	40.9091   	-18.551025  
 839  	40.9580   	-18.719482  
 840  	41.0068   	-18.699280  
 841  	41.0557   	-18.798096  
 842  	41.1046   	-18.991270  
 843  	41.1535   	-19.000244  
 844  	41.2023   	-19.022705  
 845  	41.2512   	-18.809326  
 846  	41.3001   	-19.013733  
 847  	41.3490   	-18.926147  
 848  	41.3979   	-18.771179  
 849  	41.4467   	-18.730713  
 850  	41.4956   	-18.766663  
 851  	41.5445   	-18.946350  
 852  	41.5934   	-19.096863  
 853  	41.6422   	-19.103577  
 854  	41.6911   	-19.015991  
 855  	41.7400   	-19.009277  
 856  	41.7889   	-19.092346  
 857  	41.8377   	-18.984558  
 858  	41.8866   	-18.912659  
 859  	41.9355   	-18.748718  
 860  	41.9844   	-18.838562  
 861  	42.0332   	-18.955322  
 862  	42.0821   	-18.959839  
 863  	42.1310   	-19.108093  
 864  	42.1799   	-18.993530  
 865  	42.2287   	-18.950867  
 866  	42.2776   	-18.917175  
 867  	42.3265   	-18.962097  
 868  	42.3754   	-18.998047  
 869  	42.4242   	-19.123779  
 870  	42.4731   	-19.045166  
 871  	42.5220   	-19.024963  
 872  	42.5709   	-19.065430  
 873  	42.6197   	-19.108093  
 874  	42.6686   	-19.155273  
 875  	42.7175   	-19.076660  
 876  	42.7664   	-19.031738  
 877  	42.8153   	-19.128296  
 878  	42.8641   	-19.157471  
 879  	42.9130   	-19.251831  
 880  	42.9619   	-19.254089  
 881  	43.0108   	-19.233887  
 882  	43.0596   	-19.224854  
 883  	43.1085   	-19.445007  
 884  	43.1574   	-19.305725  
 885  	43.2063   	-19.175476  
 886  	43.2551   	-19.132813  
 887  	43.3040   	-19.247314  
 888  	43.3529   	-19.166504  
 889  	43.4018   	-19.087891  
 890  	43.4506   	-19.126038  
 891  	43.4995   	-19.206909  
 892  	43.5484   	-19.170959  
 893  	43.5973   	-19.092346  
 894  	43.6461   	-19.206909  
 895  	43.6950   	-19.074402  
 896  	43.7439   	-19.164246  
 897  	43.7928   	-19.188965  
 898  	43.8416   	-19.153015  
 899  	43.8905   	-19.161987  
 900  	43.9394   	-19.076660  
 901  	43.9883   	-19.128296  
 902  	44.0371   	-19.042969  
 903  	44.0860   	-19.137268  
 904  	44.1349   	-19.056396  
 905  	44.1838   	-19.056396  
 906  	44.2327   	-19.000244  
 907  	44.2815   	-19.056396  
 908  	44.3304   	-19.179930  
 909  	44.3793   	-19.087891  
 910  	44.4282   	-19.078857  
 911  	44.4770   	-19.002502  
 912  	44.5259   	-18.948608  
 913  	44.5748   	-18.932861  
 914  	44.6237   	-18.762207  
 915  	44.6725   	-18.822815  
 916  	44.7214   	-18.786865  
 917  	44.7703   	-18.894714  
 918  	44.8192   	-19.139526  
 919  	44.8680   	-19.083374  
 920  	44.9169   	-19.157471  
 921  	44.9658   	-19.263062  
 922  	45.0147   	-19.292236  
 923  	45.0635   	-19.256348  
 924  	45.1124   	-19.258545  
 925  	45.1613   	-19.220398  
 926  	45.2102   	-19.229370  
 927  	45.2590   	-19.215881  
 928  	45.3079   	-19.139526  
 929  	45.3568   	-19.101318  
 930  	45.4057   	-19.173218  
 931  	45.4545   	-19.206909  
 932  	45.5034   	-19.274292  
 933  	45.5523   	-19.433777  
 934  	45.6012   	-19.321472  
 935  	45.6501   	-19.312500  
 936  	45.6989   	-19.386597  
 937  	45.7478   	-19.278809  
 938  	45.7967   	-19.211426  
 939  	45.8456   	-19.141785  
 940  	45.8944   	-19.265320  
 941  	45.9433   	-19.139526  
 942  	45.9922   	-19.204651  
 943  	46.0411   	-19.238342  
 944  	46.0899   	-19.233887  
 945  	46.1388   	-19.206909  
 946  	46.1877   	-19.054199  
 947  	46.2366   	-19.065430  
 948  	46.2854   	-19.033936  
 949  	46.3343   	-19.173218  
 950  	46.3832   	-19.144043  
 951  	46.4321   	-19.303467  
 952  	46.4809   	-19.227112  
 953  	46.5298   	-19.276550  
 954  	46.5787   	-19.471924  
 955  	46.6276   	-19.292236  
 956  	46.6764   	-19.218140  
 957  	46.7253   	-19.092346  
 958  	46.7742   	-18.977783  
 959  	46.8231   	-18.854248  
 960  	46.8719   	-19.036194  
 961  	46.9208   	-19.130554  
 962  	46.9697   	-19.170959  
 963  	47.0186   	-19.242859  
 964  	47.0675   	-19.256348  
 965  	47.1163   	-19.112549  
 966  	47.1652   	-19.045166  
 967  	47.2141   	-18.912659  
 968  	47.2630   	-19.049683  
 969  	47.3118   	-18.959839  
 970  	47.3607   	-19.103577  
 971  	47.4096   	-19.078857  
 972  	47.4585   	-19.024963  
 973  	47.5073   	-18.995789  
 974  	47.5562   	-18.890198  
 975  	47.6051   	-18.930664  
 976  	47.6540   	-18.982300  
 977  	47.7028   	-18.816101  
 978  	47.7517   	-18.905945  
 979  	47.8006   	-18.667847  
 980  	47.8495   	-18.827332  
 981  	47.8983   	-18.874512  
 982  	47.9472   	-18.944092  
 983  	47.9961   	-19.099121  
 984  	48.0450   	-18.962097  
 985  	48.0938   	-19.063171  
 986  	48.1427   	-19.204651  
 987  	48.1916   	-19.222656  
 988  	48.2405   	-19.101318  
 989  	48.2893   	-19.224854  
 990  	48.3382   	-19.355164  
 991  	48.3871   	-19.319214  
 992  	48.4360   	-19.249573  
 993  	48.4849   	-19.305725  
 994  	48.5337   	-19.256348  
 995  	48.5826   	-19.334961  
 996  	48.6315   	-19.222656  
 997  	48.6804   	-19.195679  
 998  	48.7292   	-19.285522  
 999  	48.7781   	-19.352905  
 1000 	48.8270   	-19.290039  
 1001 	48.8759   	-19.384338  
 1002 	48.9247   	-19.227112  
 1003 	48.9736   	-19.141785  
 1004 	49.0225   	-18.984558  
 1005 	49.0714   	-19.060913  
 1006 	49.1202   	-19.092346  
 1007 	49.1691   	-19.128296  
 1008 	49.2180   	-19.090088  
 1009 	49.2669   	-19.090088  
 1010 	49.3157   	-19.020508  
 1011 	49.3646   	-19.170959  
 1012 	49.4135   	-19.195679  
 1013 	49.4624   	-19.211426  
 1014 	49.5112   	-19.220398  
 1015 	49.5601   	-19.069885  
 1016 	49.6090   	-19.022705  
 1017 	49.6579   	-19.024963  
 1018 	49.7067   	-19.072144  
 1019 	49.7556   	-18.953125  
 1020 	49.8045   	-19.067627  
 1021 	49.8534   	-19.164246  
 1022 	49.9023   	-19.159729  
 1023 	49.9511   	-19.290039  
 1024 	50.0000   	-19.281006  

