
      	X(nS)     	Ch1(mV)      


 1    	0.0000    	-18.944092  
 2    	0.0489    	-18.932861  
 3    	0.0978    	-18.896973  
 4    	0.1466    	-19.007019  
 5    	0.1955    	-19.036194  
 6    	0.2444    	-18.982300  
 7    	0.2933    	-18.946350  
 8    	0.3421    	-19.024963  
 9    	0.3910    	-18.948608  
 10   	0.4399    	-18.919434  
 11   	0.4888    	-18.917175  
 12   	0.5376    	-19.007019  
 13   	0.5865    	-18.793640  
 14   	0.6354    	-18.672363  
 15   	0.6843    	-18.728516  
 16   	0.7331    	-18.719482  
 17   	0.7820    	-18.634155  
 18   	0.8309    	-18.829590  
 19   	0.8798    	-18.975586  
 20   	0.9286    	-19.038452  
 21   	0.9775    	-19.135010  
 22   	1.0264    	-19.024963  
 23   	1.0753    	-18.959839  
 24   	1.1241    	-18.982300  
 25   	1.1730    	-18.901428  
 26   	1.2219    	-18.991270  
 27   	1.2708    	-19.148499  
 28   	1.3196    	-19.040710  
 29   	1.3685    	-19.085632  
 30   	1.4174    	-19.099121  
 31   	1.4663    	-18.932861  
 32   	1.5152    	-18.944092  
 33   	1.5640    	-18.937378  
 34   	1.6129    	-19.004761  
 35   	1.6618    	-18.959839  
 36   	1.7107    	-18.867737  
 37   	1.7595    	-18.946350  
 38   	1.8084    	-18.984558  
 39   	1.8573    	-18.894714  
 40   	1.9062    	-19.128296  
 41   	1.9550    	-19.056396  
 42   	2.0039    	-19.024963  
 43   	2.0528    	-18.973328  
 44   	2.1017    	-19.060913  
 45   	2.1505    	-19.105835  
 46   	2.1994    	-18.912659  
 47   	2.2483    	-18.993530  
 48   	2.2972    	-19.015991  
 49   	2.3460    	-19.007019  
 50   	2.3949    	-19.200195  
 51   	2.4438    	-19.139526  
 52   	2.4927    	-19.166504  
 53   	2.5415    	-19.110352  
 54   	2.5904    	-19.141785  
 55   	2.6393    	-19.094604  
 56   	2.6882    	-19.135010  
 57   	2.7370    	-19.260803  
 58   	2.7859    	-19.215881  
 59   	2.8348    	-19.078857  
 60   	2.8837    	-19.002502  
 61   	2.9326    	-19.004761  
 62   	2.9814    	-18.941895  
 63   	3.0303    	-18.775635  
 64   	3.0792    	-18.798096  
 65   	3.1281    	-18.948608  
 66   	3.1769    	-18.955322  
 67   	3.2258    	-19.029480  
 68   	3.2747    	-19.105835  
 69   	3.3236    	-19.081116  
 70   	3.3724    	-19.081116  
 71   	3.4213    	-19.029480  
 72   	3.4702    	-19.033936  
 73   	3.5191    	-19.036194  
 74   	3.5679    	-18.993530  
 75   	3.6168    	-18.962097  
 76   	3.6657    	-18.838562  
 77   	3.7146    	-18.820557  
 78   	3.7634    	-18.896973  
 79   	3.8123    	-18.861023  
 80   	3.8612    	-18.923889  
 81   	3.9101    	-18.957581  
 82   	3.9589    	-18.932861  
 83   	4.0078    	-19.011475  
 84   	4.0567    	-18.883484  
 85   	4.1056    	-18.975586  
 86   	4.1544    	-18.930664  
 87   	4.2033    	-19.083374  
 88   	4.2522    	-18.910400  
 89   	4.3011    	-18.872253  
 90   	4.3500    	-18.948608  
 91   	4.3988    	-18.838562  
 92   	4.4477    	-18.993530  
 93   	4.4966    	-19.092346  
 94   	4.5455    	-19.004761  
 95   	4.5943    	-18.901428  
 96   	4.6432    	-18.998047  
 97   	4.6921    	-18.910400  
 98   	4.7410    	-19.000244  
 99   	4.7898    	-18.908203  
 100  	4.8387    	-18.878967  
 101  	4.8876    	-18.910400  
 102  	4.9365    	-19.022705  
 103  	4.9853    	-19.170959  
 104  	5.0342    	-19.063171  
 105  	5.0831    	-19.173218  
 106  	5.1320    	-19.292236  
 107  	5.1808    	-19.373108  
 108  	5.2297    	-19.238342  
 109  	5.2786    	-19.355164  
 110  	5.3275    	-19.418030  
 111  	5.3763    	-19.126038  
 112  	5.4252    	-19.155273  
 113  	5.4741    	-19.069885  
 114  	5.5230    	-19.020508  
 115  	5.5718    	-19.092346  
 116  	5.6207    	-18.986816  
 117  	5.6696    	-19.081116  
 118  	5.7185    	-19.220398  
 119  	5.7674    	-19.197937  
 120  	5.8162    	-19.175476  
 121  	5.8651    	-19.049683  
 122  	5.9140    	-19.094604  
 123  	5.9629    	-19.013733  
 124  	6.0117    	-19.110352  
 125  	6.0606    	-19.065430  
 126  	6.1095    	-18.861023  
 127  	6.1584    	-18.840820  
 128  	6.2072    	-18.780151  
 129  	6.2561    	-18.802612  
 130  	6.3050    	-18.661133  
 131  	6.3539    	-18.804871  
 132  	6.4027    	-18.905945  
 133  	6.4516    	-19.081116  
 134  	6.5005    	-19.170959  
 135  	6.5494    	-19.281006  
 136  	6.5982    	-19.141785  
 137  	6.6471    	-19.202393  
 138  	6.6960    	-19.110352  
 139  	6.7449    	-19.094604  
 140  	6.7937    	-19.175476  
 141  	6.8426    	-19.186705  
 142  	6.8915    	-19.087891  
 143  	6.9404    	-19.202393  
 144  	6.9892    	-19.177734  
 145  	7.0381    	-19.222656  
 146  	7.0870    	-19.126038  
 147  	7.1359    	-19.278809  
 148  	7.1848    	-19.348389  
 149  	7.2336    	-19.168701  
 150  	7.2825    	-19.211426  
 151  	7.3314    	-19.164246  
 152  	7.3803    	-19.141785  
 153  	7.4291    	-19.054199  
 154  	7.4780    	-19.137268  
 155  	7.5269    	-19.078857  
 156  	7.5758    	-19.153015  
 157  	7.6246    	-19.146240  
 158  	7.6735    	-19.114807  
 159  	7.7224    	-19.159729  
 160  	7.7713    	-19.305725  
 161  	7.8201    	-19.159729  
 162  	7.8690    	-19.128296  
 163  	7.9179    	-19.265320  
 164  	7.9668    	-19.305725  
 165  	8.0156    	-19.299011  
 166  	8.0645    	-19.233887  
 167  	8.1134    	-18.975586  
 168  	8.1623    	-18.993530  
 169  	8.2111    	-18.980042  
 170  	8.2600    	-19.159729  
 171  	8.3089    	-19.117065  
 172  	8.3578    	-19.224854  
 173  	8.4066    	-19.393311  
 174  	8.4555    	-19.352905  
 175  	8.5044    	-19.307983  
 176  	8.5533    	-19.361877  
 177  	8.6022    	-19.245117  
 178  	8.6510    	-19.206909  
 179  	8.6999    	-19.242859  
 180  	8.7488    	-19.276550  
 181  	8.7977    	-19.382080  
 182  	8.8465    	-19.281006  
 183  	8.8954    	-19.170959  
 184  	8.9443    	-19.224854  
 185  	8.9932    	-19.211426  
 186  	9.0420    	-19.074402  
 187  	9.0909    	-19.135010  
 188  	9.1398    	-19.092346  
 189  	9.1887    	-19.130554  
 190  	9.2375    	-19.307983  
 191  	9.2864    	-19.359619  
 192  	9.3353    	-19.161987  
 193  	9.3842    	-19.135010  
 194  	9.4330    	-19.173218  
 195  	9.4819    	-19.287781  
 196  	9.5308    	-19.346191  
 197  	9.5797    	-19.436035  
 198  	9.6285    	-19.357422  
 199  	9.6774    	-19.366394  
 200  	9.7263    	-19.492188  
 201  	9.7752    	-19.476440  
 202  	9.8240    	-19.391113  
 203  	9.8729    	-19.305725  
 204  	9.9218    	-19.236084  
 205  	9.9707    	-19.211426  
 206  	10.0196   	-19.146240  
 207  	10.0684   	-19.168701  
 208  	10.1173   	-19.188965  
 209  	10.1662   	-19.161987  
 210  	10.2151   	-19.206909  
 211  	10.2639   	-19.058655  
 212  	10.3128   	-19.184446  
 213  	10.3617   	-19.314697  
 214  	10.4106   	-19.188965  
 215  	10.4594   	-19.175476  
 216  	10.5083   	-19.361877  
 217  	10.5572   	-19.263062  
 218  	10.6061   	-19.195679  
 219  	10.6549   	-19.213623  
 220  	10.7038   	-19.283264  
 221  	10.7527   	-19.211426  
 222  	10.8016   	-19.139526  
 223  	10.8504   	-19.231628  
 224  	10.8993   	-19.388855  
 225  	10.9482   	-19.330444  
 226  	10.9971   	-19.382080  
 227  	11.0459   	-19.406799  
 228  	11.0948   	-19.256348  
 229  	11.1437   	-19.222656  
 230  	11.1926   	-19.227112  
 231  	11.2414   	-19.316956  
 232  	11.2903   	-19.366394  
 233  	11.3392   	-19.393311  
 234  	11.3881   	-19.386597  
 235  	11.4370   	-19.370850  
 236  	11.4858   	-19.422546  
 237  	11.5347   	-19.483154  
 238  	11.5836   	-19.543823  
 239  	11.6325   	-19.476440  
 240  	11.6813   	-19.604492  
 241  	11.7302   	-19.570799  
 242  	11.7791   	-19.525879  
 243  	11.8280   	-19.462952  
 244  	11.8768   	-19.332703  
 245  	11.9257   	-19.404541  
 246  	11.9746   	-19.299011  
 247  	12.0235   	-19.364136  
 248  	12.0723   	-19.465210  
 249  	12.1212   	-19.503418  
 250  	12.1701   	-19.599976  
 251  	12.2190   	-19.483154  
 252  	12.2678   	-19.451721  
 253  	12.3167   	-19.586487  
 254  	12.3656   	-19.368652  
 255  	12.4145   	-19.348389  
 256  	12.4633   	-19.447266  
 257  	12.5122   	-19.343933  
 258  	12.5611   	-19.453979  
 259  	12.6100   	-19.579773  
 260  	12.6588   	-19.593262  
 261  	12.7077   	-19.649414  
 262  	12.7566   	-19.361877  
 263  	12.8055   	-19.274292  
 264  	12.8544   	-19.267578  
 265  	12.9032   	-19.224854  
 266  	12.9521   	-19.193420  
 267  	13.0010   	-19.258545  
 268  	13.0499   	-19.462952  
 269  	13.0987   	-19.391113  
 270  	13.1476   	-19.083374  
 271  	13.1965   	-19.170959  
 272  	13.2454   	-19.087891  
 273  	13.2942   	-19.054199  
 274  	13.3431   	-19.139526  
 275  	13.3920   	-19.065430  
 276  	13.4409   	-18.905945  
 277  	13.4897   	-18.858765  
 278  	13.5386   	-18.935120  
 279  	13.5875   	-18.800354  
 280  	13.6364   	-18.753174  
 281  	13.6852   	-18.578003  
 282  	13.7341   	-18.732971  
 283  	13.7830   	-18.755432  
 284  	13.8319   	-18.688049  
 285  	13.8807   	-18.737488  
 286  	13.9296   	-18.613953  
 287  	13.9785   	-18.683594  
 288  	14.0274   	-18.506104  
 289  	14.0762   	-18.566772  
 290  	14.1251   	-18.706055  
 291  	14.1740   	-18.784668  
 292  	14.2229   	-18.759949  
 293  	14.2718   	-18.670105  
 294  	14.3206   	-18.544312  
 295  	14.3695   	-18.593750  
 296  	14.4184   	-18.793640  
 297  	14.4673   	-18.694824  
 298  	14.5161   	-18.719482  
 299  	14.5650   	-18.840820  
 300  	14.6139   	-18.894714  
 301  	14.6628   	-18.762207  
 302  	14.7116   	-18.890198  
 303  	14.7605   	-18.899170  
 304  	14.8094   	-18.784668  
 305  	14.8583   	-18.923889  
 306  	14.9071   	-18.912659  
 307  	14.9560   	-18.959839  
 308  	15.0049   	-19.042969  
 309  	15.0538   	-18.946350  
 310  	15.1026   	-18.921631  
 311  	15.1515   	-19.119324  
 312  	15.2004   	-18.941895  
 313  	15.2493   	-19.139526  
 314  	15.2981   	-19.058655  
 315  	15.3470   	-19.188965  
 316  	15.3959   	-19.141785  
 317  	15.4448   	-19.004761  
 318  	15.4936   	-19.007019  
 319  	15.5425   	-19.000244  
 320  	15.5914   	-18.971069  
 321  	15.6403   	-18.973328  
 322  	15.6892   	-18.932861  
 323  	15.7380   	-18.946350  
 324  	15.7869   	-18.908203  
 325  	15.8358   	-18.950867  
 326  	15.8847   	-18.957581  
 327  	15.9335   	-18.914917  
 328  	15.9824   	-18.941895  
 329  	16.0313   	-18.905945  
 330  	16.0802   	-18.953125  
 331  	16.1290   	-18.890198  
 332  	16.1779   	-19.047424  
 333  	16.2268   	-18.962097  
 334  	16.2757   	-18.993530  
 335  	16.3245   	-18.964355  
 336  	16.3734   	-18.989012  
 337  	16.4223   	-19.099121  
 338  	16.4712   	-19.094604  
 339  	16.5200   	-19.029480  
 340  	16.5689   	-19.040710  
 341  	16.6178   	-19.101318  
 342  	16.6667   	-19.193420  
 343  	16.7155   	-19.220398  
 344  	16.7644   	-19.166504  
 345  	16.8133   	-19.281006  
 346  	16.8622   	-19.281006  
 347  	16.9110   	-19.211426  
 348  	16.9599   	-19.123779  
 349  	17.0088   	-19.018250  
 350  	17.0577   	-18.982300  
 351  	17.1066   	-19.085632  
 352  	17.1554   	-18.914917  
 353  	17.2043   	-18.764404  
 354  	17.2532   	-18.818359  
 355  	17.3021   	-18.818359  
 356  	17.3509   	-18.807129  
 357  	17.3998   	-18.688049  
 358  	17.4487   	-19.020508  
 359  	17.4976   	-18.816101  
 360  	17.5464   	-18.728516  
 361  	17.5953   	-18.775635  
 362  	17.6442   	-18.777893  
 363  	17.6931   	-18.694824  
 364  	17.7419   	-18.717285  
 365  	17.7908   	-18.739746  
 366  	17.8397   	-18.710510  
 367  	17.8886   	-18.852051  
 368  	17.9374   	-18.878967  
 369  	17.9863   	-19.009277  
 370  	18.0352   	-18.926147  
 371  	18.0841   	-18.975586  
 372  	18.1329   	-18.989012  
 373  	18.1818   	-18.867737  
 374  	18.2307   	-18.858765  
 375  	18.2796   	-18.807129  
 376  	18.3284   	-18.811584  
 377  	18.3773   	-18.840820  
 378  	18.4262   	-18.921631  
 379  	18.4751   	-18.984558  
 380  	18.5239   	-18.962097  
 381  	18.5728   	-18.845276  
 382  	18.6217   	-18.856506  
 383  	18.6706   	-18.948608  
 384  	18.7195   	-18.973328  
 385  	18.7683   	-18.910400  
 386  	18.8172   	-18.861023  
 387  	18.8661   	-18.759949  
 388  	18.9150   	-18.843018  
 389  	18.9638   	-18.820557  
 390  	19.0127   	-18.908203  
 391  	19.0616   	-18.914917  
 392  	19.1105   	-18.995789  
 393  	19.1593   	-18.818359  
 394  	19.2082   	-18.856506  
 395  	19.2571   	-18.878967  
 396  	19.3060   	-18.719482  
 397  	19.3548   	-18.771179  
 398  	19.4037   	-18.950867  
 399  	19.4526   	-19.011475  
 400  	19.5015   	-18.780151  
 401  	19.5503   	-18.928406  
 402  	19.5992   	-19.031738  
 403  	19.6481   	-18.908203  
 404  	19.6970   	-18.843018  
 405  	19.7458   	-18.903687  
 406  	19.7947   	-19.027222  
 407  	19.8436   	-18.964355  
 408  	19.8925   	-19.056396  
 409  	19.9413   	-19.186705  
 410  	19.9902   	-19.045166  
 411  	20.0391   	-18.950867  
 412  	20.0880   	-19.072144  
 413  	20.1369   	-19.130554  
 414  	20.1857   	-19.141785  
 415  	20.2346   	-19.123779  
 416  	20.2835   	-19.323730  
 417  	20.3324   	-19.339417  
 418  	20.3812   	-19.278809  
 419  	20.4301   	-19.029480  
 420  	20.4790   	-19.121582  
 421  	20.5279   	-19.029480  
 422  	20.5767   	-19.009277  
 423  	20.6256   	-18.762207  
 424  	20.6745   	-18.887939  
 425  	20.7234   	-19.094604  
 426  	20.7722   	-19.045166  
 427  	20.8211   	-18.991270  
 428  	20.8700   	-19.056396  
 429  	20.9189   	-19.063171  
 430  	20.9677   	-18.953125  
 431  	21.0166   	-18.802612  
 432  	21.0655   	-18.719482  
 433  	21.1144   	-18.766663  
 434  	21.1632   	-18.820557  
 435  	21.2121   	-18.708252  
 436  	21.2610   	-18.894714  
 437  	21.3099   	-18.849792  
 438  	21.3587   	-19.087891  
 439  	21.4076   	-18.746460  
 440  	21.4565   	-18.892456  
 441  	21.5054   	-18.703796  
 442  	21.5543   	-18.732971  
 443  	21.6031   	-18.793640  
 444  	21.6520   	-18.845276  
 445  	21.7009   	-18.753174  
 446  	21.7498   	-18.780151  
 447  	21.7986   	-18.739746  
 448  	21.8475   	-18.649902  
 449  	21.8964   	-18.530823  
 450  	21.9453   	-18.690308  
 451  	21.9941   	-18.602722  
 452  	22.0430   	-18.609436  
 453  	22.0919   	-18.618408  
 454  	22.1408   	-18.750977  
 455  	22.1896   	-18.465698  
 456  	22.2385   	-18.649902  
 457  	22.2874   	-18.699280  
 458  	22.3363   	-18.737488  
 459  	22.3851   	-18.759949  
 460  	22.4340   	-18.762207  
 461  	22.4829   	-18.840820  
 462  	22.5318   	-18.800354  
 463  	22.5806   	-18.867737  
 464  	22.6295   	-18.813843  
 465  	22.6784   	-18.607178  
 466  	22.7273   	-18.737488  
 467  	22.7761   	-18.699280  
 468  	22.8250   	-18.600464  
 469  	22.8739   	-18.519592  
 470  	22.9228   	-18.470215  
 471  	22.9717   	-18.485901  
 472  	23.0205   	-18.425293  
 473  	23.0694   	-18.414063  
 474  	23.1183   	-18.326416  
 475  	23.1672   	-18.292725  
 476  	23.2160   	-18.259033  
 477  	23.2649   	-18.418518  
 478  	23.3138   	-18.432007  
 479  	23.3627   	-18.463440  
 480  	23.4115   	-18.467957  
 481  	23.4604   	-18.434265  
 482  	23.5093   	-18.485901  
 483  	23.5582   	-18.436523  
 484  	23.6070   	-18.364624  
 485  	23.6559   	-18.344421  
 486  	23.7048   	-18.133301  
 487  	23.7537   	-18.072632  
 488  	23.8025   	-18.196167  
 489  	23.8514   	-18.041199  
 490  	23.9003   	-18.032227  
 491  	23.9492   	-18.106323  
 492  	23.9980   	-17.881714  
 493  	24.0469   	-17.906433  
 494  	24.0958   	-17.919922  
 495  	24.1447   	-18.002991  
 496  	24.1935   	-17.875000  
 497  	24.2424   	-17.812073  
 498  	24.2913   	-17.933350  
 499  	24.3402   	-18.025452  
 500  	24.3891   	-18.086121  
 501  	24.4379   	-17.836792  
 502  	24.4868   	-17.890686  
 503  	24.5357   	-17.967041  
 504  	24.5846   	-18.137756  
 505  	24.6334   	-18.200684  
 506  	24.6823   	-18.029968  
 507  	24.7312   	-17.960327  
 508  	24.7801   	-17.686279  
 509  	24.8289   	-17.715515  
 510  	24.8778   	-17.470703  
 511  	24.9267   	-17.504395  
 512  	24.9756   	-17.270752  
 513  	25.0244   	-17.122559  
 514  	25.0733   	-16.897949  
 515  	25.1222   	-16.720459  
 516  	25.1711   	-16.493652  
 517  	25.2199   	-16.075867  
 518  	25.2688   	-15.512085  
 519  	25.3177   	-14.741699  
 520  	25.3666   	-13.683776  
 521  	25.4154   	-12.131714  
 522  	25.4643   	-10.862671  
 523  	25.5132   	-9.721680   
 524  	25.5621   	-8.762573   
 525  	25.6109   	-7.983154   
 526  	25.6598   	-7.293640   
 527  	25.7087   	-5.793213   
 528  	25.7576   	1.481873    
 529  	25.8065   	19.520264   
 530  	25.8553   	36.002075   
 531  	25.9042   	52.097534   
 532  	25.9531   	64.192749   
 533  	26.0020   	73.235596   
 534  	26.0508   	80.697144   
 535  	26.0997   	87.298340   
 536  	26.1486   	91.386230   
 537  	26.1975   	94.670044   
 538  	26.2463   	97.315918   
 539  	26.2952   	99.818115   
 540  	26.3441   	101.129761  
 541  	26.3930   	102.670654  
 542  	26.4418   	104.236206  
 543  	26.4907   	105.271606  
 544  	26.5396   	105.891472  
 545  	26.5885   	106.531616  
 546  	26.6373   	107.481812  
 547  	26.6862   	108.097168  
 548  	26.7351   	108.515015  
 549  	26.7840   	108.966423  
 550  	26.8328   	109.570671  
 551  	26.8817   	109.983887  
 552  	26.9306   	110.320801  
 553  	26.9795   	110.410645  
 554  	27.0283   	110.639771  
 555  	27.0772   	111.093506  
 556  	27.1261   	111.304565  
 557  	27.1750   	111.693245  
 558  	27.2239   	112.279427  
 559  	27.2727   	112.607307  
 560  	27.3216   	113.007202  
 561  	27.3705   	113.296875  
 562  	27.4194   	113.579956  
 563  	27.4682   	113.750610  
 564  	27.5171   	114.336792  
 565  	27.5660   	114.321159  
 566  	27.6149   	114.509758  
 567  	27.6637   	114.855705  
 568  	27.7126   	115.149902  
 569  	27.7615   	115.188110  
 570  	27.8104   	115.307129  
 571  	27.8592   	115.170166  
 572  	27.9081   	115.408203  
 573  	27.9570   	115.414917  
 574  	28.0059   	115.565430  
 575  	28.0547   	115.722656  
 576  	28.1036   	115.915886  
 577  	28.1525   	116.061890  
 578  	28.2014   	116.205559  
 579  	28.2502   	116.481812  
 580  	28.2991   	116.497559  
 581  	28.3480   	116.360596  
 582  	28.3969   	116.254997  
 583  	28.4457   	116.142700  
 584  	28.4946   	116.086540  
 585  	28.5435   	115.963013  
 586  	28.5924   	115.922607  
 587  	28.6413   	115.655273  
 588  	28.6901   	115.576660  
 589  	28.7390   	115.601440  
 590  	28.7879   	115.704712  
 591  	28.8368   	115.805786  
 592  	28.8856   	116.158447  
 593  	28.9345   	116.097786  
 594  	28.9834   	116.118042  
 595  	29.0323   	116.210083  
 596  	29.0811   	116.333611  
 597  	29.1300   	116.261719  
 598  	29.1789   	116.452629  
 599  	29.2278   	116.630119  
 600  	29.2766   	116.659302  
 601  	29.3255   	116.589714  
 602  	29.3744   	116.863647  
 603  	29.4233   	116.922119  
 604  	29.4721   	116.856934  
 605  	29.5210   	116.890617  
 606  	29.5699   	116.931023  
 607  	29.6188   	117.101807  
 608  	29.6676   	117.220825  
 609  	29.7165   	117.198372  
 610  	29.7654   	117.209595  
 611  	29.8143   	117.272461  
 612  	29.8631   	117.395988  
 613  	29.9120   	117.274773  
 614  	29.9609   	117.209595  
 615  	30.0098   	117.517334  
 616  	30.0587   	117.456665  
 617  	30.1075   	117.519531  
 618  	30.1564   	117.665527  
 619  	30.2053   	117.789063  
 620  	30.2542   	117.867676  
 621  	30.3030   	117.829468  
 622  	30.3519   	117.802620  
 623  	30.4008   	117.732903  
 624  	30.4497   	117.833984  
 625  	30.4985   	117.755371  
 626  	30.5474   	117.771111  
 627  	30.5963   	117.553215  
 628  	30.6452   	117.515007  
 629  	30.6940   	117.418457  
 630  	30.7429   	117.360107  
 631  	30.7918   	117.371338  
 632  	30.8407   	117.395988  
 633  	30.8895   	117.461182  
 634  	30.9384   	117.497070  
 635  	30.9873   	117.299438  
 636  	31.0362   	117.391479  
 637  	31.0850   	117.371338  
 638  	31.1339   	117.395988  
 639  	31.1828   	117.470093  
 640  	31.2317   	117.519531  
 641  	31.2805   	117.634163  
 642  	31.3294   	117.573479  
 643  	31.3783   	117.719482  
 644  	31.4272   	117.598145  
 645  	31.4761   	117.566772  
 646  	31.5249   	117.467896  
 647  	31.5738   	117.375862  
 648  	31.6227   	117.346550  
 649  	31.6716   	117.198372  
 650  	31.7204   	117.317375  
 651  	31.7693   	117.321899  
 652  	31.8182   	117.169189  
 653  	31.8671   	117.133179  
 654  	31.9159   	117.052368  
 655  	31.9648   	116.991699  
 656  	32.0137   	116.805298  
 657  	32.0626   	116.881714  
 658  	32.1114   	116.520020  
 659  	32.1603   	116.600945  
 660  	32.2092   	116.569458  
 661  	32.2581   	116.401001  
 662  	32.3069   	116.320190  
 663  	32.3558   	116.243767  
 664  	32.4047   	116.097786  
 665  	32.4536   	116.030396  
 666  	32.5024   	116.021362  
 667  	32.5513   	115.918083  
 668  	32.6002   	116.055054  
 669  	32.6491   	115.819206  
 670  	32.6979   	115.668816  
 671  	32.7468   	115.354370  
 672  	32.7957   	115.120728  
 673  	32.8446   	114.911865  
 674  	32.8935   	114.878174  
 675  	32.9423   	114.718620  
 676  	32.9912   	114.718620  
 677  	33.0401   	114.523315  
 678  	33.0890   	114.332397  
 679  	33.1378   	114.215576  
 680  	33.1867   	114.015633  
 681  	33.2356   	114.024666  
 682  	33.2845   	113.871948  
 683  	33.3333   	113.568726  
 684  	33.3822   	113.595581  
 685  	33.4311   	113.795525  
 686  	33.4800   	113.494507  
 687  	33.5288   	113.521484  
 688  	33.5777   	113.350830  
 689  	33.6266   	113.238518  
 690  	33.6755   	113.366570  
 691  	33.7243   	113.476563  
 692  	33.7732   	113.440674  
 693  	33.8221   	113.391235  
 694  	33.8710   	113.341797  
 695  	33.9198   	113.319328  
 696  	33.9687   	113.231812  
 697  	34.0176   	113.564209  
 698  	34.0665   	113.676506  
 699  	34.1153   	113.543945  
 700  	34.1642   	113.822510  
 701  	34.2131   	113.757332  
 702  	34.2620   	113.764038  
 703  	34.3109   	113.683228  
 704  	34.3597   	113.835930  
 705  	34.4086   	113.764038  
 706  	34.4575   	113.829224  
 707  	34.5064   	113.901123  
 708  	34.5552   	113.824699  
 709  	34.6041   	113.739380  
 710  	34.6530   	113.559692  
 711  	34.7019   	113.359734  
 712  	34.7507   	113.508049  
 713  	34.7996   	113.442871  
 714  	34.8485   	113.530518  
 715  	34.8974   	113.689941  
 716  	34.9462   	113.883171  
 717  	34.9951   	113.948242  
 718  	35.0440   	114.094231  
 719  	35.0929   	114.053825  
 720  	35.1417   	114.193123  
 721  	35.1906   	113.959473  
 722  	35.2395   	113.916870  
 723  	35.2884   	113.999878  
 724  	35.3372   	113.757332  
 725  	35.3861   	113.703484  
 726  	35.4350   	113.696648  
 727  	35.4839   	113.732666  
 728  	35.5327   	113.476563  
 729  	35.5816   	113.528191  
 730  	35.6305   	113.339592  
 731  	35.6794   	113.281120  
 732  	35.7283   	113.294678  
 733  	35.7771   	113.269890  
 734  	35.8260   	113.258667  
 735  	35.8749   	113.272217  
 736  	35.9238   	113.148674  
 737  	35.9726   	113.029655  
 738  	36.0215   	112.874641  
 739  	36.0704   	112.575920  
 740  	36.1193   	112.432129  
 741  	36.1681   	112.214233  
 742  	36.2170   	111.836914  
 743  	36.2659   	111.477539  
 744  	36.3148   	111.136108  
 745  	36.3636   	110.664429  
 746  	36.4125   	110.469116  
 747  	36.4614   	109.938957  
 748  	36.5103   	109.195557  
 749  	36.5591   	108.631714  
 750  	36.6080   	107.877075  
 751  	36.6569   	107.326782  
 752  	36.7058   	106.468750  
 753  	36.7546   	105.878052  
 754  	36.8035   	105.094116  
 755  	36.8524   	104.339478  
 756  	36.9013   	103.515137  
 757  	36.9501   	102.643677  
 758  	36.9990   	101.810425  
 759  	37.0479   	100.947876  
 760  	37.0968   	100.051636  
 761  	37.1457   	99.184692   
 762  	37.1945   	98.472656   
 763  	37.2434   	97.697754   
 764  	37.2923   	97.093628   
 765  	37.3412   	96.433228   
 766  	37.3900   	95.873901   
 767  	37.4389   	95.098999   
 768  	37.4878   	94.429688   
 769  	37.5367   	93.558228   
 770  	37.5855   	92.639526   
 771  	37.6344   	91.729858   
 772  	37.6833   	90.584351   
 773  	37.7322   	89.719604   
 774  	37.7810   	88.650513   
 775  	37.8299   	87.466797   
 776  	37.8788   	86.301147   
 777  	37.9277   	85.117424   
 778  	37.9765   	84.063965   
 779  	38.0254   	82.860107   
 780  	38.0743   	81.743774   
 781  	38.1232   	80.512939   
 782  	38.1720   	79.151733   
 783  	38.2209   	77.909668   
 784  	38.2698   	76.624878   
 785  	38.3187   	75.310913   
 786  	38.3675   	74.100342   
 787  	38.4164   	72.914429   
 788  	38.4653   	71.694702   
 789  	38.5142   	70.735718   
 790  	38.5631   	69.495850   
 791  	38.6119   	68.557007   
 792  	38.6608   	67.382202   
 793  	38.7097   	66.086304   
 794  	38.7586   	64.922729   
 795  	38.8074   	63.638062   
 796  	38.8563   	62.182495   
 797  	38.9052   	60.861816   
 798  	38.9541   	59.235718   
 799  	39.0029   	57.582516   
 800  	39.0518   	55.945187   
 801  	39.1007   	54.341431   
 802  	39.1496   	52.733276   
 803  	39.1984   	50.992554   
 804  	39.2473   	49.483154   
 805  	39.2962   	47.803101   
 806  	39.3451   	46.188110   
 807  	39.3939   	44.436157   
 808  	39.4428   	42.479794   
 809  	39.4917   	40.119141   
 810  	39.5406   	38.369446   
 811  	39.5894   	36.772461   
 812  	39.6383   	35.215942   
 813  	39.6872   	33.843567   
 814  	39.7361   	32.581299   
 815  	39.7849   	31.087646   
 816  	39.8338   	29.733213   
 817  	39.8827   	28.506836   
 818  	39.9316   	27.287231   
 819  	39.9805   	26.033937   
 820  	40.0293   	24.953552   
 821  	40.0782   	23.967529   
 822  	40.1271   	22.891602   
 823  	40.1760   	21.786560   
 824  	40.2248   	20.791504   
 825  	40.2737   	19.769531   
 826  	40.3226   	18.841919   
 827  	40.3715   	17.936768   
 828  	40.4203   	17.013611   
 829  	40.4692   	15.984863   
 830  	40.5181   	15.203247   
 831  	40.5670   	14.192505   
 832  	40.6158   	13.397399   
 833  	40.6647   	12.595519   
 834  	40.7136   	11.793701   
 835  	40.7625   	10.722290   
 836  	40.8113   	9.897949    
 837  	40.8602   	8.732239    
 838  	40.9091   	7.728271    
 839  	40.9580   	6.746704    
 840  	41.0068   	5.560791    
 841  	41.0557   	4.621887    
 842  	41.1046   	3.474121    
 843  	41.1535   	2.405029    
 844  	41.2023   	1.477356    
 845  	41.2512   	0.367798    
 846  	41.3001   	-0.584534   
 847  	41.3490   	-1.673889   
 848  	41.3979   	-2.583557   
 849  	41.4467   	-3.511230   
 850  	41.4956   	-4.535400   
 851  	41.5445   	-5.456299   
 852  	41.5934   	-6.289612   
 853  	41.6422   	-6.945496   
 854  	41.6911   	-7.466552   
 855  	41.7400   	-8.037109   
 856  	41.7889   	-8.427917   
 857  	41.8377   	-8.984924   
 858  	41.8866   	-9.384765   
 859  	41.9355   	-9.611572   
 860  	41.9844   	-9.966492   
 861  	42.0332   	-10.166382  
 862  	42.0821   	-10.408936  
 863  	42.1310   	-10.685242  
 864  	42.1799   	-10.786316  
 865  	42.2287   	-11.114258  
 866  	42.2776   	-11.493835  
 867  	42.3265   	-11.826233  
 868  	42.3754   	-12.210327  
 869  	42.4242   	-12.682007  
 870  	42.4731   	-13.420959  
 871  	42.5220   	-13.769104  
 872  	42.5709   	-14.139709  
 873  	42.6197   	-14.654053  
 874  	42.6686   	-14.874207  
 875  	42.7175   	-15.289734  
 876  	42.7664   	-15.545775  
 877  	42.8153   	-15.909668  
 878  	42.8641   	-16.143250  
 879  	42.9130   	-16.358887  
 880  	42.9619   	-16.509338  
 881  	43.0108   	-16.603699  
 882  	43.0596   	-16.713745  
 883  	43.1085   	-16.888916  
 884  	43.1574   	-17.064148  
 885  	43.2063   	-17.297729  
 886  	43.2551   	-17.358398  
 887  	43.3040   	-17.461670  
 888  	43.3529   	-17.538086  
 889  	43.4018   	-17.538086  
 890  	43.4506   	-17.740234  
 891  	43.4995   	-17.848022  
 892  	43.5484   	-17.985046  
 893  	43.5973   	-17.971558  
 894  	43.6461   	-17.865967  
 895  	43.6950   	-18.117554  
 896  	43.7439   	-18.178223  
 897  	43.7928   	-18.142273  
 898  	43.8416   	-18.232117  
 899  	43.8905   	-18.270264  
 900  	43.9394   	-18.142273  
 901  	43.9883   	-18.142273  
 902  	44.0371   	-18.391602  
 903  	44.0860   	-18.555542  
 904  	44.1349   	-18.497131  
 905  	44.1838   	-18.499390  
 906  	44.2327   	-18.661133  
 907  	44.2815   	-18.688049  
 908  	44.3304   	-18.757690  
 909  	44.3793   	-18.786865  
 910  	44.4282   	-18.649902  
 911  	44.4770   	-18.706055  
 912  	44.5259   	-18.834045  
 913  	44.5748   	-19.020508  
 914  	44.6237   	-19.000244  
 915  	44.6725   	-19.078857  
 916  	44.7214   	-18.989012  
 917  	44.7703   	-18.991270  
 918  	44.8192   	-19.074402  
 919  	44.8680   	-19.166504  
 920  	44.9169   	-19.110352  
 921  	44.9658   	-19.090088  
 922  	45.0147   	-19.146240  
 923  	45.0635   	-19.222656  
 924  	45.1124   	-19.137268  
 925  	45.1613   	-19.020508  
 926  	45.2102   	-19.074402  
 927  	45.2590   	-19.096863  
 928  	45.3079   	-19.083374  
 929  	45.3568   	-18.944092  
 930  	45.4057   	-19.033936  
 931  	45.4545   	-19.155273  
 932  	45.5034   	-19.173218  
 933  	45.5523   	-19.218140  
 934  	45.6012   	-19.249573  
 935  	45.6501   	-19.296753  
 936  	45.6989   	-19.164246  
 937  	45.7478   	-19.123779  
 938  	45.7967   	-19.254089  
 939  	45.8456   	-19.314697  
 940  	45.8944   	-19.406799  
 941  	45.9433   	-19.465210  
 942  	45.9922   	-19.442749  
 943  	46.0411   	-19.060913  
 944  	46.0899   	-19.011475  
 945  	46.1388   	-18.802612  
 946  	46.1877   	-18.566772  
 947  	46.2366   	-18.306213  
 948  	46.2854   	-17.818848  
 949  	46.3343   	-17.311218  
 950  	46.3832   	-16.769897  
 951  	46.4321   	-16.082581  
 952  	46.4809   	-15.851257  
 953  	46.5298   	-15.204347  
 954  	46.5787   	-14.404784  
 955  	46.6276   	-13.434448  
 956  	46.6764   	-6.714111   
 957  	46.7253   	0.060059    
 958  	46.7742   	6.023438    
 959  	46.8231   	9.426270    
 960  	46.8719   	10.059692   
 961  	46.9208   	9.677856    
 962  	46.9697   	8.739014    
 963  	47.0186   	7.290283    
 964  	47.0675   	5.100342    
 965  	47.1163   	3.045166    
 966  	47.1652   	1.308899    
 967  	47.2141   	-0.447510   
 968  	47.2630   	-2.428589   
 969  	47.3118   	-4.092957   
 970  	47.3607   	-5.337280   
 971  	47.4096   	-6.669189   
 972  	47.4585   	-7.936035   
 973  	47.5073   	-8.886108   
 974  	47.5562   	-9.793518   
 975  	47.6051   	-10.453857  
 976  	47.6540   	-11.374756  
 977  	47.7028   	-12.035155  
 978  	47.7517   	-12.405762  
 979  	47.8006   	-12.949280  
 980  	47.8495   	-13.250244  
 981  	47.8983   	-13.715210  
 982  	47.9472   	-14.031920  
 983  	47.9961   	-14.555237  
 984  	48.0450   	-14.723694  
 985  	48.0938   	-14.964049  
 986  	48.1427   	-15.067383  
 987  	48.1916   	-15.226807  
 988  	48.2405   	-15.496338  
 989  	48.2893   	-15.579467  
 990  	48.3382   	-15.772643  
 991  	48.3871   	-15.727721  
 992  	48.4360   	-15.893921  
 993  	48.4849   	-15.970277  
 994  	48.5337   	-16.273499  
 995  	48.5826   	-16.466675  
 996  	48.6315   	-16.502625  
 997  	48.6804   	-16.628418  
 998  	48.7292   	-16.929382  
 999  	48.7781   	-17.055176  
 1000 	48.8270   	-17.066406  
 1001 	48.8759   	-17.205627  
 1002 	48.9247   	-17.275269  
 1003 	48.9736   	-17.160706  
 1004 	49.0225   	-17.353882  
 1005 	49.0714   	-17.443726  
 1006 	49.1202   	-17.445984  
 1007 	49.1691   	-17.403320  
 1008 	49.2180   	-17.495361  
 1009 	49.2669   	-17.360596  
 1010 	49.3157   	-17.508850  
 1011 	49.3646   	-17.450439  
 1012 	49.4135   	-17.454956  
 1013 	49.4624   	-17.630127  
 1014 	49.5112   	-17.832275  
 1015 	49.5601   	-17.794128  
 1016 	49.6090   	-17.890686  
 1017 	49.6579   	-17.877197  
 1018 	49.7067   	-17.962585  
 1019 	49.7556   	-17.971558  
 1020 	49.8045   	-17.989502  
 1021 	49.8534   	-18.016479  
 1022 	49.9023   	-17.951355  
 1023 	49.9511   	-18.056885  
 1024 	50.0000   	-18.122070  

