
      	X(nS)     	Ch1(mV)      


 1    	0.0000    	-18.966553  
 2    	0.0489    	-18.917175  
 3    	0.0978    	-19.045166  
 4    	0.1466    	-19.027222  
 5    	0.1955    	-19.058655  
 6    	0.2444    	-19.051941  
 7    	0.2933    	-18.980042  
 8    	0.3421    	-18.858765  
 9    	0.3910    	-19.033936  
 10   	0.4399    	-19.076660  
 11   	0.4888    	-19.031738  
 12   	0.5376    	-18.986816  
 13   	0.5865    	-19.022705  
 14   	0.6354    	-19.170959  
 15   	0.6843    	-19.020508  
 16   	0.7331    	-18.980042  
 17   	0.7820    	-18.964355  
 18   	0.8309    	-19.000244  
 19   	0.8798    	-19.096863  
 20   	0.9286    	-18.887939  
 21   	0.9775    	-18.899170  
 22   	1.0264    	-18.993530  
 23   	1.0753    	-18.861023  
 24   	1.1241    	-19.022705  
 25   	1.1730    	-19.085632  
 26   	1.2219    	-19.029480  
 27   	1.2708    	-18.890198  
 28   	1.3196    	-18.800354  
 29   	1.3685    	-18.876709  
 30   	1.4174    	-18.910400  
 31   	1.4663    	-18.755432  
 32   	1.5152    	-18.899170  
 33   	1.5640    	-18.649902  
 34   	1.6129    	-18.854248  
 35   	1.6618    	-18.766663  
 36   	1.7107    	-18.867737  
 37   	1.7595    	-18.845276  
 38   	1.8084    	-18.840820  
 39   	1.8573    	-18.645386  
 40   	1.9062    	-18.629639  
 41   	1.9550    	-18.663330  
 42   	2.0039    	-18.656616  
 43   	2.0528    	-18.777893  
 44   	2.1017    	-18.845276  
 45   	2.1505    	-18.802612  
 46   	2.1994    	-18.791382  
 47   	2.2483    	-18.582520  
 48   	2.2972    	-18.780151  
 49   	2.3460    	-18.735229  
 50   	2.3949    	-18.694824  
 51   	2.4438    	-18.688049  
 52   	2.4927    	-18.730713  
 53   	2.5415    	-18.631897  
 54   	2.5904    	-18.553284  
 55   	2.6393    	-18.542053  
 56   	2.6882    	-18.589233  
 57   	2.7370    	-18.548828  
 58   	2.7859    	-18.744202  
 59   	2.8348    	-18.699280  
 60   	2.8837    	-18.937378  
 61   	2.9326    	-18.773438  
 62   	2.9814    	-18.932861  
 63   	3.0303    	-18.843018  
 64   	3.0792    	-18.896973  
 65   	3.1281    	-18.645386  
 66   	3.1769    	-18.602722  
 67   	3.2258    	-18.586975  
 68   	3.2747    	-18.530823  
 69   	3.3236    	-18.555542  
 70   	3.3724    	-18.535339  
 71   	3.4213    	-18.573486  
 72   	3.4702    	-18.649902  
 73   	3.5191    	-18.764404  
 74   	3.5679    	-18.627441  
 75   	3.6168    	-18.735229  
 76   	3.6657    	-18.622925  
 77   	3.7146    	-18.768921  
 78   	3.7634    	-18.634155  
 79   	3.8123    	-18.730713  
 80   	3.8612    	-18.777893  
 81   	3.9101    	-18.874512  
 82   	3.9589    	-18.737488  
 83   	4.0078    	-18.674561  
 84   	4.0567    	-18.656616  
 85   	4.1056    	-18.712769  
 86   	4.1544    	-18.786865  
 87   	4.2033    	-18.649902  
 88   	4.2522    	-18.681335  
 89   	4.3011    	-18.566772  
 90   	4.3500    	-18.620667  
 91   	4.3988    	-18.656616  
 92   	4.4477    	-18.438721  
 93   	4.4966    	-18.346680  
 94   	4.5455    	-18.373596  
 95   	4.5943    	-18.373596  
 96   	4.6432    	-18.312988  
 97   	4.6921    	-18.299500  
 98   	4.7410    	-18.286011  
 99   	4.7898    	-18.086121  
 100  	4.8387    	-18.081604  
 101  	4.8876    	-18.142273  
 102  	4.9365    	-18.211914  
 103  	4.9853    	-18.254578  
 104  	5.0342    	-18.128784  
 105  	5.0831    	-17.942383  
 106  	5.1320    	-18.029968  
 107  	5.1808    	-17.922119  
 108  	5.2297    	-18.119812  
 109  	5.2786    	-18.086121  
 110  	5.3275    	-18.027710  
 111  	5.3763    	-17.985046  
 112  	5.4252    	-18.020996  
 113  	5.4741    	-18.000732  
 114  	5.5230    	-18.079346  
 115  	5.5718    	-17.989502  
 116  	5.6207    	-17.886230  
 117  	5.6696    	-17.823303  
 118  	5.7185    	-17.827820  
 119  	5.7674    	-17.742432  
 120  	5.8162    	-17.751465  
 121  	5.8651    	-17.670593  
 122  	5.9140    	-17.627930  
 123  	5.9629    	-17.443726  
 124  	6.0117    	-17.389832  
 125  	6.0606    	-17.196655  
 126  	6.1095    	-17.207886  
 127  	6.1584    	-16.821533  
 128  	6.2072    	-16.374573  
 129  	6.2561    	-15.990479  
 130  	6.3050    	-15.404298  
 131  	6.3539    	-14.584473  
 132  	6.4027    	-13.443419  
 133  	6.4516    	-11.857666  
 134  	6.5005    	-9.914795   
 135  	6.5494    	-8.692932   
 136  	6.5982    	-7.650756   
 137  	6.6471    	-6.961182   
 138  	6.6960    	-6.408691   
 139  	6.7449    	-5.537170   
 140  	6.7937    	-2.893555   
 141  	6.8426    	12.090149   
 142  	6.8915    	37.729309   
 143  	6.9404    	56.513428   
 144  	6.9892    	70.569458   
 145  	7.0381    	81.265381   
 146  	7.0870    	88.931274   
 147  	7.1359    	94.905884   
 148  	7.1848    	98.627686   
 149  	7.2336    	101.534058  
 150  	7.2825    	103.923950  
 151  	7.3314    	105.572624  
 152  	7.3803    	107.281860  
 153  	7.4291    	108.577873  
 154  	7.4780    	109.846916  
 155  	7.5269    	110.990105  
 156  	7.5758    	111.668457  
 157  	7.6246    	111.733650  
 158  	7.6735    	112.144653  
 159  	7.7224    	112.483765  
 160  	7.7713    	112.786987  
 161  	7.8201    	113.195801  
 162  	7.8690    	113.386719  
 163  	7.9179    	113.676506  
 164  	7.9668    	113.957275  
 165  	8.0156    	114.204346  
 166  	8.0645    	114.321159  
 167  	8.1134    	114.491821  
 168  	8.1623    	114.848999  
 169  	8.2111    	115.421745  
 170  	8.2600    	116.016960  
 171  	8.3089    	116.311157  
 172  	8.3578    	116.724487  
 173  	8.4066    	117.047844  
 174  	8.4555    	117.137688  
 175  	8.5044    	117.171387  
 176  	8.5533    	117.292725  
 177  	8.6022    	117.710449  
 178  	8.6510    	117.726196  
 179  	8.6999    	117.977783  
 180  	8.7488    	118.103516  
 181  	8.7977    	118.204590  
 182  	8.8465    	118.267448  
 183  	8.8954    	118.321411  
 184  	8.9443    	118.213623  
 185  	8.9932    	118.188835  
 186  	9.0420    	118.397827  
 187  	9.0909    	118.586418  
 188  	9.1398    	118.748169  
 189  	9.1887    	119.055908  
 190  	9.2375    	119.123291  
 191  	9.2864    	119.253540  
 192  	9.3353    	119.462402  
 193  	9.3842    	119.516350  
 194  	9.4330    	119.352417  
 195  	9.4819    	119.177124  
 196  	9.5308    	119.105347  
 197  	9.5797    	119.064819  
 198  	9.6285    	118.948120  
 199  	9.6774    	118.692017  
 200  	9.7263    	118.761597  
 201  	9.7752    	118.635857  
 202  	9.8240    	118.644890  
 203  	9.8729    	118.750366  
 204  	9.9218    	118.617920  
 205  	9.9707    	118.669556  
 206  	10.0196   	118.739136  
 207  	10.0684   	118.799805  
 208  	10.1173   	118.997437  
 209  	10.1662   	119.253540  
 210  	10.2151   	119.451172  
 211  	10.2639   	119.577019  
 212  	10.3128   	119.691528  
 213  	10.3617   	119.893669  
 214  	10.4106   	119.938599  
 215  	10.4594   	120.035164  
 216  	10.5083   	120.044197  
 217  	10.5572   	120.104858  
 218  	10.6061   	120.230583  
 219  	10.6549   	120.257568  
 220  	10.7038   	120.235107  
 221  	10.7527   	120.437256  
 222  	10.8016   	120.381096  
 223  	10.8504   	120.515869  
 224  	10.8993   	120.540520  
 225  	10.9482   	120.715698  
 226  	10.9971   	120.881958  
 227  	11.0459   	120.859497  
 228  	11.0948   	120.834831  
 229  	11.1437   	120.756218  
 230  	11.1926   	120.711304  
 231  	11.2414   	120.632690  
 232  	11.2903   	120.634888  
 233  	11.3392   	120.569695  
 234  	11.3881   	120.401237  
 235  	11.4370   	120.740479  
 236  	11.4858   	120.610229  
 237  	11.5347   	120.524780  
 238  	11.5836   	120.558464  
 239  	11.6325   	120.405762  
 240  	11.6813   	120.367554  
 241  	11.7302   	120.360832  
 242  	11.7791   	120.212654  
 243  	11.8280   	120.129517  
 244  	11.8768   	120.183472  
 245  	11.9257   	120.093636  
 246  	11.9746   	120.017212  
 247  	12.0235   	120.102531  
 248  	12.0723   	119.920654  
 249  	12.1212   	119.949829  
 250  	12.1701   	119.954338  
 251  	12.2190   	120.015015  
 252  	12.2678   	119.911621  
 253  	12.3167   	120.095825  
 254  	12.3656   	120.129517  
 255  	12.4145   	120.080078  
 256  	12.4633   	119.940796  
 257  	12.5122   	119.738647  
 258  	12.5611   	119.597160  
 259  	12.6100   	119.489388  
 260  	12.6588   	119.653320  
 261  	12.7077   	119.563477  
 262  	12.7566   	119.619629  
 263  	12.8055   	119.725212  
 264  	12.8544   	119.848755  
 265  	12.9032   	119.810547  
 266  	12.9521   	119.736443  
 267  	13.0010   	120.039673  
 268  	13.0499   	119.846558  
 269  	13.0987   	119.884636  
 270  	13.1476   	119.660034  
 271  	13.1965   	119.545525  
 272  	13.2454   	119.502808  
 273  	13.2942   	119.527580  
 274  	13.3431   	119.448982  
 275  	13.3920   	119.444458  
 276  	13.4409   	119.293945  
 277  	13.4897   	119.001945  
 278  	13.5386   	118.864990  
 279  	13.5875   	118.918823  
 280  	13.6364   	118.790894  
 281  	13.6852   	118.748169  
 282  	13.7341   	118.532593  
 283  	13.7830   	118.330444  
 284  	13.8319   	118.161987  
 285  	13.8807   	117.928345  
 286  	13.9296   	117.687988  
 287  	13.9785   	117.400513  
 288  	14.0274   	117.238777  
 289  	14.0762   	117.020882  
 290  	14.1251   	116.807495  
 291  	14.1740   	116.827759  
 292  	14.2229   	116.621086  
 293  	14.2718   	116.311157  
 294  	14.3206   	116.259521  
 295  	14.3695   	116.317871  
 296  	14.4184   	116.099976  
 297  	14.4673   	116.279663  
 298  	14.5161   	115.994499  
 299  	14.5650   	115.940552  
 300  	14.6139   	115.861938  
 301  	14.6628   	115.819206  
 302  	14.7116   	115.778801  
 303  	14.7605   	115.801270  
 304  	14.8094   	115.626099  
 305  	14.8583   	115.742920  
 306  	14.9071   	115.680061  
 307  	14.9560   	115.441887  
 308  	15.0049   	115.500359  
 309  	15.0538   	115.630608  
 310  	15.1026   	115.749626  
 311  	15.1515   	115.657585  
 312  	15.2004   	115.635132  
 313  	15.2493   	115.700188  
 314  	15.2981   	115.850708  
 315  	15.3470   	115.841675  
 316  	15.3959   	115.920288  
 317  	15.4448   	115.900146  
 318  	15.4936   	115.891113  
 319  	15.5425   	115.958488  
 320  	15.5914   	115.918083  
 321  	15.6403   	115.855225  
 322  	15.6892   	115.870972  
 323  	15.7380   	115.821533  
 324  	15.7869   	115.848518  
 325  	15.8358   	115.929321  
 326  	15.8847   	115.857414  
 327  	15.9335   	115.747429  
 328  	15.9824   	116.135979  
 329  	16.0313   	116.064087  
 330  	16.0802   	116.106819  
 331  	16.1290   	116.252800  
 332  	16.1779   	116.203362  
 333  	16.2268   	116.176384  
 334  	16.2757   	116.012451  
 335  	16.3245   	116.041626  
 336  	16.3734   	115.985466  
 337  	16.4223   	115.900146  
 338  	16.4712   	115.900146  
 339  	16.5200   	116.010132  
 340  	16.5689   	116.093262  
 341  	16.6178   	116.075310  
 342  	16.6667   	116.086540  
 343  	16.7155   	115.799065  
 344  	16.7644   	115.563232  
 345  	16.8133   	115.513794  
 346  	16.8622   	115.421745  
 347  	16.9110   	115.379028  
 348  	16.9599   	115.194817  
 349  	17.0088   	115.410515  
 350  	17.0577   	115.286987  
 351  	17.1066   	115.244255  
 352  	17.1554   	114.963501  
 353  	17.2043   	114.682739  
 354  	17.2532   	114.375000  
 355  	17.3021   	114.130241  
 356  	17.3509   	113.802246  
 357  	17.3998   	113.344116  
 358  	17.4487   	112.870117  
 359  	17.4976   	112.483765  
 360  	17.5464   	111.825684  
 361  	17.5953   	111.044067  
 362  	17.6442   	110.347778  
 363  	17.6931   	109.759270  
 364  	17.7419   	108.908081  
 365  	17.7908   	108.209473  
 366  	17.8397   	107.573853  
 367  	17.8886   	106.859619  
 368  	17.9374   	105.882576  
 369  	17.9863   	104.934692  
 370  	18.0352   	104.031738  
 371  	18.0841   	103.128784  
 372  	18.1329   	102.156250  
 373  	18.1818   	101.123055  
 374  	18.2307   	100.157227  
 375  	18.2796   	99.330688   
 376  	18.3284   	98.679321   
 377  	18.3773   	98.106567   
 378  	18.4262   	97.349609   
 379  	18.4751   	96.857788   
 380  	18.5239   	95.984009   
 381  	18.5728   	95.251831   
 382  	18.6217   	94.162476   
 383  	18.6706   	93.192139   
 384  	18.7195   	92.026367   
 385  	18.7683   	90.898804   
 386  	18.8172   	89.703979   
 387  	18.8661   	88.560669   
 388  	18.9150   	87.417358   
 389  	18.9638   	86.067505   
 390  	19.0127   	85.101685   
 391  	19.0616   	83.920288   
 392  	19.1105   	82.709595   
 393  	19.1593   	81.323730   
 394  	19.2082   	79.991821   
 395  	19.2571   	78.828369   
 396  	19.3060   	77.509888   
 397  	19.3548   	76.016235   
 398  	19.4037   	74.837036   
 399  	19.4526   	73.646606   
 400  	19.5015   	72.496582   
 401  	19.5503   	71.535278   
 402  	19.5992   	70.484131   
 403  	19.6481   	69.309448   
 404  	19.6970   	68.276245   
 405  	19.7458   	67.020630   
 406  	19.7947   	65.774048   
 407  	19.8436   	64.509521   
 408  	19.8925   	63.218018   
 409  	19.9413   	61.623287   
 410  	19.9902   	60.120602   
 411  	20.0391   	58.685425   
 412  	20.0880   	56.836792   
 413  	20.1369   	55.163448   
 414  	20.1857   	53.344116   
 415  	20.2346   	51.724731   
 416  	20.2835   	50.006470   
 417  	20.3324   	48.189331   
 418  	20.3812   	46.540771   
 419  	20.4301   	44.824707   
 420  	20.4790   	42.969482   
 421  	20.5279   	40.824463   
 422  	20.5767   	38.769287   
 423  	20.6256   	37.001587   
 424  	20.6745   	35.321533   
 425  	20.7234   	33.854797   
 426  	20.7722   	32.358887   
 427  	20.8211   	30.633911   
 428  	20.8700   	29.317688   
 429  	20.9189   	27.992491   
 430  	20.9677   	26.683043   
 431  	21.0166   	25.753172   
 432  	21.0655   	24.484131   
 433  	21.1144   	23.363281   
 434  	21.1632   	22.332336   
 435  	21.2121   	21.357544   
 436  	21.2610   	20.546692   
 437  	21.3099   	19.354004   
 438  	21.3587   	18.392700   
 439  	21.4076   	17.411133   
 440  	21.4565   	16.198242   
 441  	21.5054   	15.324524   
 442  	21.5543   	14.637207   
 443  	21.6031   	13.826416   
 444  	21.6520   	13.136841   
 445  	21.7009   	12.350708   
 446  	21.7498   	11.614014   
 447  	21.7986   	10.717773   
 448  	21.8475   	9.891235    
 449  	21.8964   	8.911926    
 450  	21.9453   	8.009033    
 451  	21.9941   	7.009521    
 452  	22.0430   	5.783142    
 453  	22.0919   	4.729736    
 454  	22.1408   	3.528076    
 455  	22.1896   	2.355591    
 456  	22.2385   	1.452637    
 457  	22.2874   	0.277954    
 458  	22.3363   	-0.858581   
 459  	22.3851   	-1.947937   
 460  	22.4340   	-3.095703   
 461  	22.4829   	-4.068237   
 462  	22.5318   	-5.137390   
 463  	22.5806   	-6.067261   
 464  	22.6295   	-6.790527   
 465  	22.6784   	-7.576660   
 466  	22.7273   	-8.185303   
 467  	22.7761   	-8.802979   
 468  	22.8250   	-9.470093   
 469  	22.8739   	-9.802490   
 470  	22.9228   	-10.033875  
 471  	22.9717   	-10.355042  
 472  	23.0205   	-10.503296  
 473  	23.0694   	-10.669495  
 474  	23.1183   	-10.752625  
 475  	23.1672   	-11.004150  
 476  	23.2160   	-11.168152  
 477  	23.2649   	-11.588135  
 478  	23.3138   	-11.882385  
 479  	23.3627   	-12.196838  
 480  	23.4115   	-12.765137  
 481  	23.4604   	-13.182861  
 482  	23.5093   	-13.677001  
 483  	23.5582   	-14.137451  
 484  	23.6070   	-14.490112  
 485  	23.6559   	-14.894409  
 486  	23.7048   	-15.357116  
 487  	23.7537   	-15.588441  
 488  	23.8025   	-15.923095  
 489  	23.8514   	-16.111816  
 490  	23.9003   	-16.446472  
 491  	23.9492   	-16.644104  
 492  	23.9980   	-16.967529  
 493  	24.0469   	-17.228088  
 494  	24.0958   	-17.421265  
 495  	24.1447   	-17.383057  
 496  	24.1935   	-17.567261  
 497  	24.2424   	-17.630127  
 498  	24.2913   	-17.677307  
 499  	24.3402   	-17.778381  
 500  	24.3891   	-17.796387  
 501  	24.4379   	-17.809814  
 502  	24.4868   	-18.054686  
 503  	24.5357   	-18.126526  
 504  	24.5846   	-18.140015  
 505  	24.6334   	-18.227600  
 506  	24.6823   	-18.438721  
 507  	24.7312   	-18.499390  
 508  	24.7801   	-18.351135  
 509  	24.8289   	-18.416260  
 510  	24.8778   	-18.254578  
 511  	24.9267   	-18.411804  
 512  	24.9756   	-18.728516  
 513  	25.0244   	-18.521851  
 514  	25.0733   	-18.766663  
 515  	25.1222   	-19.054199  
 516  	25.1711   	-19.202393  
 517  	25.2199   	-18.872253  
 518  	25.2688   	-18.622925  
 519  	25.3177   	-18.836304  
 520  	25.3666   	-18.753174  
 521  	25.4154   	-18.867737  
 522  	25.4643   	-18.726257  
 523  	25.5132   	-18.849792  
 524  	25.5621   	-19.123779  
 525  	25.6109   	-19.000244  
 526  	25.6598   	-18.966553  
 527  	25.7087   	-19.274292  
 528  	25.7576   	-19.281006  
 529  	25.8065   	-19.251831  
 530  	25.8553   	-19.191162  
 531  	25.9042   	-19.447266  
 532  	25.9531   	-19.496643  
 533  	26.0020   	-19.348389  
 534  	26.0508   	-19.283264  
 535  	26.0997   	-19.489929  
 536  	26.1486   	-19.337158  
 537  	26.1975   	-19.240601  
 538  	26.2463   	-19.379881  
 539  	26.2952   	-19.532593  
 540  	26.3441   	-19.211426  
 541  	26.3930   	-19.379881  
 542  	26.4418   	-19.579773  
 543  	26.4907   	-19.514648  
 544  	26.5396   	-19.355164  
 545  	26.5885   	-19.397827  
 546  	26.6373   	-19.561768  
 547  	26.6862   	-19.305725  
 548  	26.7351   	-19.541565  
 549  	26.7840   	-19.532593  
 550  	26.8328   	-19.386597  
 551  	26.8817   	-19.512390  
 552  	26.9306   	-19.611206  
 553  	26.9795   	-19.525879  
 554  	27.0283   	-19.579773  
 555  	27.0772   	-19.604492  
 556  	27.1261   	-19.478699  
 557  	27.1750   	-19.184446  
 558  	27.2239   	-19.164246  
 559  	27.2727   	-18.955322  
 560  	27.3216   	-18.739746  
 561  	27.3705   	-18.380371  
 562  	27.4194   	-17.931152  
 563  	27.4682   	-16.918152  
 564  	27.5171   	-16.251038  
 565  	27.5660   	-15.649109  
 566  	27.6149   	-15.011230  
 567  	27.6637   	-14.429442  
 568  	27.7126   	-13.443419  
 569  	27.7615   	-6.188538   
 570  	27.8104   	4.675781    
 571  	27.8592   	10.960388   
 572  	27.9081   	13.307556   
 573  	27.9570   	13.222169   
 574  	28.0059   	11.622986   
 575  	28.0547   	9.466736    
 576  	28.1036   	7.155518    
 577  	28.1525   	4.851013    
 578  	28.2014   	2.384766    
 579  	28.2502   	0.145447    
 580  	28.2991   	-2.057983   
 581  	28.3480   	-3.852600   
 582  	28.3969   	-5.299072   
 583  	28.4457   	-6.794982   
 584  	28.4946   	-7.987671   
 585  	28.5435   	-9.294922   
 586  	28.5924   	-10.507813  
 587  	28.6413   	-11.403992  
 588  	28.6901   	-12.275452  
 589  	28.7390   	-13.070556  
 590  	28.7879   	-13.378296  
 591  	28.8368   	-13.899414  
 592  	28.8856   	-14.267762  
 593  	28.9345   	-14.579956  
 594  	28.9834   	-14.894409  
 595  	29.0323   	-15.065125  
 596  	29.0811   	-15.570495  
 597  	29.1300   	-15.840027  
 598  	29.1789   	-15.954589  
 599  	29.2278   	-16.109558  
 600  	29.2766   	-16.379089  
 601  	29.3255   	-16.464417  
 602  	29.3744   	-16.760925  
 603  	29.4233   	-16.810303  
 604  	29.4721   	-16.855225  
 605  	29.5210   	-16.936096  
 606  	29.5699   	-17.147217  
 607  	29.6188   	-17.259521  
 608  	29.6676   	-17.286499  
 609  	29.7165   	-17.425781  
 610  	29.7654   	-17.600952  
 611  	29.8143   	-17.627930  
 612  	29.8631   	-17.636902  
 613  	29.9120   	-17.753662  
 614  	29.9609   	-17.852539  
 615  	30.0098   	-18.059143  
 616  	30.0587   	-18.083862  
 617  	30.1075   	-18.256836  
 618  	30.1564   	-18.290527  
 619  	30.2053   	-18.265808  
 620  	30.2542   	-18.326416  
 621  	30.3030   	-18.362366  
 622  	30.3519   	-18.227600  
 623  	30.4008   	-18.452209  
 624  	30.4497   	-18.481445  
 625  	30.4985   	-18.566772  
 626  	30.5474   	-18.470215  
 627  	30.5963   	-18.492676  
 628  	30.6452   	-18.571289  
 629  	30.6940   	-18.703796  
 630  	30.7429   	-18.688049  
 631  	30.7918   	-18.685791  
 632  	30.8407   	-18.782410  
 633  	30.8895   	-18.737488  
 634  	30.9384   	-18.701538  
 635  	30.9873   	-18.896973  
 636  	31.0362   	-18.735229  
 637  	31.0850   	-18.703796  
 638  	31.1339   	-18.602722  
 639  	31.1828   	-18.555542  
 640  	31.2317   	-18.393799  
 641  	31.2805   	-18.674561  
 642  	31.3294   	-18.717285  
 643  	31.3783   	-18.921631  
 644  	31.4272   	-18.849792  
 645  	31.4761   	-18.928406  
 646  	31.5249   	-18.726257  
 647  	31.5738   	-18.849792  
 648  	31.6227   	-18.791382  
 649  	31.6716   	-18.771179  
 650  	31.7204   	-18.948608  
 651  	31.7693   	-18.905945  
 652  	31.8182   	-18.737488  
 653  	31.8671   	-18.953125  
 654  	31.9159   	-18.982300  
 655  	31.9648   	-18.944092  
 656  	32.0137   	-18.887939  
 657  	32.0626   	-18.917175  
 658  	32.1114   	-19.033936  
 659  	32.1603   	-18.849792  
 660  	32.2092   	-18.901428  
 661  	32.2581   	-19.101318  
 662  	32.3069   	-19.063171  
 663  	32.3558   	-19.218140  
 664  	32.4047   	-19.397827  
 665  	32.4536   	-19.375364  
 666  	32.5024   	-19.357422  
 667  	32.5513   	-19.453979  
 668  	32.6002   	-19.247314  
 669  	32.6491   	-19.436035  
 670  	32.6979   	-19.512390  
 671  	32.7468   	-19.505615  
 672  	32.7957   	-19.370850  
 673  	32.8446   	-19.489929  
 674  	32.8935   	-19.516846  
 675  	32.9423   	-19.393311  
 676  	32.9912   	-19.418030  
 677  	33.0401   	-19.451721  
 678  	33.0890   	-19.397827  
 679  	33.1378   	-19.361877  
 680  	33.1867   	-19.483154  
 681  	33.2356   	-19.514648  
 682  	33.2845   	-19.480957  
 683  	33.3333   	-19.431519  
 684  	33.3822   	-19.467468  
 685  	33.4311   	-19.465210  
 686  	33.4800   	-19.462952  
 687  	33.5288   	-19.703308  
 688  	33.5777   	-19.546082  
 689  	33.6266   	-19.471924  
 690  	33.6755   	-19.546082  
 691  	33.7243   	-19.577515  
 692  	33.7732   	-19.685303  
 693  	33.8221   	-19.572998  
 694  	33.8710   	-19.485413  
 695  	33.9198   	-19.550537  
 696  	33.9687   	-19.705566  
 697  	34.0176   	-19.629150  
 698  	34.0665   	-19.662842  
 699  	34.1153   	-19.584229  
 700  	34.1642   	-19.644897  
 701  	34.2131   	-19.469727  
 702  	34.2620   	-19.489929  
 703  	34.3109   	-19.552795  
 704  	34.3597   	-19.427002  
 705  	34.4086   	-19.539307  
 706  	34.4575   	-19.530334  
 707  	34.5064   	-19.669617  
 708  	34.5552   	-19.595459  
 709  	34.6041   	-19.537109  
 710  	34.6530   	-19.420288  
 711  	34.7019   	-19.541565  
 712  	34.7507   	-19.660645  
 713  	34.7996   	-19.588745  
 714  	34.8485   	-19.665100  
 715  	34.8974   	-19.676331  
 716  	34.9462   	-19.568542  
 717  	34.9951   	-19.629150  
 718  	35.0440   	-19.476440  
 719  	35.0929   	-19.586487  
 720  	35.1417   	-19.471924  
 721  	35.1906   	-19.593262  
 722  	35.2395   	-19.631409  
 723  	35.2884   	-19.721252  
 724  	35.3372   	-19.651611  
 725  	35.3861   	-19.671875  
 726  	35.4350   	-19.752686  
 727  	35.4839   	-19.734741  
 728  	35.5327   	-19.858276  
 729  	35.5816   	-19.867249  
 730  	35.6305   	-19.903198  
 731  	35.6794   	-19.847046  
 732  	35.7283   	-19.900940  
 733  	35.7771   	-19.986328  
 734  	35.8260   	-19.820068  
 735  	35.8749   	-19.833557  
 736  	35.9238   	-19.979553  
 737  	35.9726   	-19.981812  
 738  	36.0215   	-19.826843  
 739  	36.0704   	-19.885254  
 740  	36.1193   	-19.795410  
 741  	36.1681   	-19.768433  
 742  	36.2170   	-19.788635  
 743  	36.2659   	-19.696533  
 744  	36.3148   	-19.799866  
 745  	36.3636   	-19.824585  
 746  	36.4125   	-19.707764  
 747  	36.4614   	-19.752686  
 748  	36.5103   	-19.784180  
 749  	36.5591   	-19.811096  
 750  	36.6080   	-19.894226  
 751  	36.6569   	-19.856018  
 752  	36.7058   	-19.882996  
 753  	36.7546   	-19.988525  
 754  	36.8035   	-19.896484  
 755  	36.8524   	-19.948120  
 756  	36.9013   	-19.840332  
 757  	36.9501   	-19.811096  
 758  	36.9990   	-19.898682  
 759  	37.0479   	-19.975098  
 760  	37.0968   	-20.026733  
 761  	37.1457   	-20.091858  
 762  	37.1945   	-19.975098  
 763  	37.2434   	-20.026733  
 764  	37.2923   	-20.087402  
 765  	37.3412   	-20.017761  
 766  	37.3900   	-19.954834  
 767  	37.4389   	-20.028992  
 768  	37.4878   	-19.847046  
 769  	37.5367   	-19.743713  
 770  	37.5855   	-19.786377  
 771  	37.6344   	-19.997559  
 772  	37.6833   	-20.069397  
 773  	37.7322   	-20.022217  
 774  	37.7810   	-20.125549  
 775  	37.8299   	-19.959351  
 776  	37.8788   	-19.864990  
 777  	37.9277   	-19.927917  
 778  	37.9765   	-19.972839  
 779  	38.0254   	-19.829102  
 780  	38.0743   	-19.941406  
 781  	38.1232   	-19.874023  
 782  	38.1720   	-19.831299  
 783  	38.2209   	-19.833557  
 784  	38.2698   	-19.939148  
 785  	38.3187   	-19.954834  
 786  	38.3675   	-20.094116  
 787  	38.4164   	-19.838074  
 788  	38.4653   	-19.862793  
 789  	38.5142   	-19.831299  
 790  	38.5631   	-19.815613  
 791  	38.6119   	-19.737000  
 792  	38.6608   	-19.793152  
 793  	38.7097   	-19.710022  
 794  	38.7586   	-19.838074  
 795  	38.8074   	-19.813354  
 796  	38.8563   	-19.840332  
 797  	38.9052   	-19.918945  
 798  	38.9541   	-20.006531  
 799  	39.0029   	-20.060425  
 800  	39.0518   	-20.017761  
 801  	39.1007   	-19.777405  
 802  	39.1496   	-19.916687  
 803  	39.1984   	-19.795410  
 804  	39.2473   	-19.770691  
 805  	39.2962   	-19.871765  
 806  	39.3451   	-19.948120  
 807  	39.3939   	-19.851563  
 808  	39.4428   	-19.864990  
 809  	39.4917   	-19.808838  
 810  	39.5406   	-19.737000  
 811  	39.5894   	-19.804382  
 812  	39.6383   	-19.701050  
 813  	39.6872   	-19.737000  
 814  	39.7361   	-19.759460  
 815  	39.7849   	-19.966064  
 816  	39.8338   	-19.952637  
 817  	39.8827   	-19.907715  
 818  	39.9316   	-19.952637  
 819  	39.9805   	-19.889709  
 820  	40.0293   	-19.761719  
 821  	40.0782   	-19.698792  
 822  	40.1271   	-19.696533  
 823  	40.1760   	-19.820068  
 824  	40.2248   	-19.624695  
 825  	40.2737   	-19.642639  
 826  	40.3226   	-19.723511  
 827  	40.3715   	-19.775146  
 828  	40.4203   	-19.871765  
 829  	40.4692   	-19.952637  
 830  	40.5181   	-19.988525  
 831  	40.5670   	-19.993042  
 832  	40.6158   	-19.898682  
 833  	40.6647   	-19.880737  
 834  	40.7136   	-19.757202  
 835  	40.7625   	-19.599976  
 836  	40.8113   	-19.613464  
 837  	40.8602   	-19.761719  
 838  	40.9091   	-19.662842  
 839  	40.9580   	-19.615723  
 840  	41.0068   	-19.593262  
 841  	41.0557   	-19.447266  
 842  	41.1046   	-19.586487  
 843  	41.1535   	-19.638184  
 844  	41.2023   	-19.752686  
 845  	41.2512   	-19.631409  
 846  	41.3001   	-19.815613  
 847  	41.3490   	-19.813354  
 848  	41.3979   	-19.788635  
 849  	41.4467   	-19.635925  
 850  	41.4956   	-19.588745  
 851  	41.5445   	-19.485413  
 852  	41.5934   	-19.516846  
 853  	41.6422   	-19.418030  
 854  	41.6911   	-19.494385  
 855  	41.7400   	-19.537109  
 856  	41.7889   	-19.671875  
 857  	41.8377   	-19.411316  
 858  	41.8866   	-19.462952  
 859  	41.9355   	-19.406799  
 860  	41.9844   	-19.447266  
 861  	42.0332   	-19.406799  
 862  	42.0821   	-19.337158  
 863  	42.1310   	-19.292236  
 864  	42.1799   	-19.413574  
 865  	42.2287   	-19.420288  
 866  	42.2776   	-19.393311  
 867  	42.3265   	-19.442749  
 868  	42.3754   	-19.582031  
 869  	42.4242   	-19.588745  
 870  	42.4731   	-19.710022  
 871  	42.5220   	-19.608948  
 872  	42.5709   	-19.703308  
 873  	42.6197   	-19.523621  
 874  	42.6686   	-19.465210  
 875  	42.7175   	-19.420288  
 876  	42.7664   	-19.445007  
 877  	42.8153   	-19.388855  
 878  	42.8641   	-19.409058  
 879  	42.9130   	-19.359619  
 880  	42.9619   	-19.310242  
 881  	43.0108   	-19.278809  
 882  	43.0596   	-19.339417  
 883  	43.1085   	-19.449463  
 884  	43.1574   	-19.314697  
 885  	43.2063   	-19.375364  
 886  	43.2551   	-19.307983  
 887  	43.3040   	-19.069885  
 888  	43.3529   	-19.263062  
 889  	43.4018   	-19.256348  
 890  	43.4506   	-19.382080  
 891  	43.4995   	-19.525879  
 892  	43.5484   	-19.591003  
 893  	43.5973   	-19.561768  
 894  	43.6461   	-19.523621  
 895  	43.6950   	-19.552795  
 896  	43.7439   	-19.471924  
 897  	43.7928   	-19.492188  
 898  	43.8416   	-19.512390  
 899  	43.8905   	-19.498901  
 900  	43.9394   	-19.503418  
 901  	43.9883   	-19.395569  
 902  	44.0371   	-19.290039  
 903  	44.0860   	-19.397827  
 904  	44.1349   	-19.406799  
 905  	44.1838   	-19.411316  
 906  	44.2327   	-19.516846  
 907  	44.2815   	-19.478699  
 908  	44.3304   	-19.599976  
 909  	44.3793   	-19.465210  
 910  	44.4282   	-19.523621  
 911  	44.4770   	-19.555054  
 912  	44.5259   	-19.656128  
 913  	44.5748   	-19.404541  
 914  	44.6237   	-19.400085  
 915  	44.6725   	-19.451721  
 916  	44.7214   	-19.283264  
 917  	44.7703   	-19.422546  
 918  	44.8192   	-19.373108  
 919  	44.8680   	-19.413574  
 920  	44.9169   	-19.478699  
 921  	44.9658   	-19.530334  
 922  	45.0147   	-19.494385  
 923  	45.0635   	-19.550537  
 924  	45.1124   	-19.730225  
 925  	45.1613   	-19.593262  
 926  	45.2102   	-19.626953  
 927  	45.2590   	-19.588745  
 928  	45.3079   	-19.718994  
 929  	45.3568   	-19.595459  
 930  	45.4057   	-19.649414  
 931  	45.4545   	-19.882996  
 932  	45.5034   	-19.876221  
 933  	45.5523   	-19.806641  
 934  	45.6012   	-19.770691  
 935  	45.6501   	-19.918945  
 936  	45.6989   	-19.734741  
 937  	45.7478   	-19.689819  
 938  	45.7967   	-19.763916  
 939  	45.8456   	-19.656128  
 940  	45.8944   	-19.741455  
 941  	45.9433   	-19.694336  
 942  	45.9922   	-19.923401  
 943  	46.0411   	-20.186218  
 944  	46.0899   	-20.080627  
 945  	46.1388   	-19.905457  
 946  	46.1877   	-19.772949  
 947  	46.2366   	-19.692078  
 948  	46.2854   	-19.703308  
 949  	46.3343   	-19.743713  
 950  	46.3832   	-19.667358  
 951  	46.4321   	-19.844788  
 952  	46.4809   	-19.939148  
 953  	46.5298   	-19.860535  
 954  	46.5787   	-19.784180  
 955  	46.6276   	-19.891968  
 956  	46.6764   	-19.880737  
 957  	46.7253   	-19.653870  
 958  	46.7742   	-19.826843  
 959  	46.8231   	-19.936890  
 960  	46.8719   	-19.772949  
 961  	46.9208   	-19.635925  
 962  	46.9697   	-19.768433  
 963  	47.0186   	-19.961609  
 964  	47.0675   	-19.781921  
 965  	47.1163   	-19.840332  
 966  	47.1652   	-19.968323  
 967  	47.2141   	-19.728027  
 968  	47.2630   	-19.651611  
 969  	47.3118   	-19.784180  
 970  	47.3607   	-19.894226  
 971  	47.4096   	-19.669617  
 972  	47.4585   	-19.642639  
 973  	47.5073   	-19.829102  
 974  	47.5562   	-19.806641  
 975  	47.6051   	-19.748230  
 976  	47.6540   	-19.667358  
 977  	47.7028   	-19.804382  
 978  	47.7517   	-20.026733  
 979  	47.8006   	-19.993042  
 980  	47.8495   	-20.085144  
 981  	47.8983   	-19.986328  
 982  	47.9472   	-19.898682  
 983  	47.9961   	-19.984070  
 984  	48.0450   	-20.037964  
 985  	48.0938   	-19.862793  
 986  	48.1427   	-19.934631  
 987  	48.1916   	-19.824585  
 988  	48.2405   	-19.723511  
 989  	48.2893   	-19.566284  
 990  	48.3382   	-19.361877  
 991  	48.3871   	-19.195679  
 992  	48.4360   	-19.013733  
 993  	48.4849   	-18.667847  
 994  	48.5337   	-18.366882  
 995  	48.5826   	-18.072632  
 996  	48.6315   	-17.922119  
 997  	48.6804   	-18.002991  
 998  	48.7292   	-17.998535  
 999  	48.7781   	-18.308472  
 1000 	48.8270   	-18.661133  
 1001 	48.8759   	-18.735229  
 1002 	48.9247   	-19.013733  
 1003 	48.9736   	-19.056396  
 1004 	49.0225   	-19.247314  
 1005 	49.0714   	-19.314697  
 1006 	49.1202   	-19.184446  
 1007 	49.1691   	-19.429260  
 1008 	49.2180   	-19.305725  
 1009 	49.2669   	-19.247314  
 1010 	49.3157   	-19.267578  
 1011 	49.3646   	-19.267578  
 1012 	49.4135   	-19.440491  
 1013 	49.4624   	-19.283264  
 1014 	49.5112   	-19.231628  
 1015 	49.5601   	-19.285522  
 1016 	49.6090   	-19.260803  
 1017 	49.6579   	-19.258545  
 1018 	49.7067   	-19.215881  
 1019 	49.7556   	-19.395569  
 1020 	49.8045   	-19.323730  
 1021 	49.8534   	-19.148499  
 1022 	49.9023   	-19.090088  
 1023 	49.9511   	-19.056396  
 1024 	50.0000   	-18.998047  

