
      	X(nS)     	Ch1(mV)      


 1    	0.0000    	-70.554260  
 2    	0.0587    	-70.769897  
 3    	0.1173    	-70.051140  
 4    	0.1760    	-70.410522  
 5    	0.2346    	-70.051140  
 6    	0.2933    	-70.841736  
 7    	0.3519    	-70.841736  
 8    	0.4106    	-70.051140  
 9    	0.4692    	-69.548035  
 10   	0.5279    	-70.482361  
 11   	0.5865    	-69.763611  
 12   	0.6452    	-70.266785  
 13   	0.7038    	-69.619865  
 14   	0.7625    	-70.769897  
 15   	0.8211    	-69.979248  
 16   	0.8798    	-69.979248  
 17   	0.9384    	-69.979248  
 18   	0.9971    	-69.619865  
 19   	1.0557    	-69.476128  
 20   	1.1144    	-69.619865  
 21   	1.1730    	-69.691772  
 22   	1.2317    	-70.841736  
 23   	1.2903    	-70.194885  
 24   	1.3490    	-70.626152  
 25   	1.4076    	-70.697998  
 26   	1.4663    	-70.338623  
 27   	1.5249    	-69.907410  
 28   	1.5836    	-70.051140  
 29   	1.6422    	-70.338623  
 30   	1.7009    	-69.476128  
 31   	1.7595    	-70.122986  
 32   	1.8182    	-68.541748  
 33   	1.8768    	-69.260498  
 34   	1.9355    	-68.901123  
 35   	1.9941    	-69.404236  
 36   	2.0528    	-69.691772  
 37   	2.1114    	-69.619865  
 38   	2.1701    	-70.122986  
 39   	2.2287    	-69.404236  
 40   	2.2874    	-69.404236  
 41   	2.3460    	-68.541748  
 42   	2.4047    	-69.835510  
 43   	2.4633    	-69.044853  
 44   	2.5220    	-69.332397  
 45   	2.5806    	-69.476128  
 46   	2.6393    	-69.979248  
 47   	2.6979    	-70.482361  
 48   	2.7566    	-70.913635  
 49   	2.8152    	-69.619865  
 50   	2.8739    	-69.907410  
 51   	2.9326    	-68.541748  
 52   	2.9912    	-70.410522  
 53   	3.0499    	-69.763611  
 54   	3.1085    	-70.626152  
 55   	3.1672    	-69.907410  
 56   	3.2258    	-70.338623  
 57   	3.2845    	-70.338623  
 58   	3.3431    	-69.835510  
 59   	3.4018    	-68.757385  
 60   	3.4604    	-67.966736  
 61   	3.5191    	-68.685486  
 62   	3.5777    	-69.404236  
 63   	3.6364    	-69.619865  
 64   	3.6950    	-69.691772  
 65   	3.7537    	-70.122986  
 66   	3.8123    	-70.410522  
 67   	3.8710    	-70.122986  
 68   	3.9296    	-70.122986  
 69   	3.9883    	-69.691772  
 70   	4.0469    	-69.116760  
 71   	4.1056    	-69.260498  
 72   	4.1642    	-68.685486  
 73   	4.2229    	-69.691772  
 74   	4.2815    	-69.404236  
 75   	4.3402    	-69.691772  
 76   	4.3988    	-69.835510  
 77   	4.4575    	-69.835510  
 78   	4.5161    	-70.194885  
 79   	4.5748    	-69.188660  
 80   	4.6334    	-69.404236  
 81   	4.6921    	-68.901123  
 82   	4.7507    	-68.469910  
 83   	4.8094    	-68.613647  
 84   	4.8680    	-69.116760  
 85   	4.9267    	-68.469910  
 86   	4.9853    	-67.966736  
 87   	5.0440    	-68.613647  
 88   	5.1026    	-68.469910  
 89   	5.1613    	-69.044853  
 90   	5.2199    	-69.116760  
 91   	5.2786    	-68.757385  
 92   	5.3372    	-68.398010  
 93   	5.3959    	-69.691772  
 94   	5.4545    	-69.044853  
 95   	5.5132    	-69.116760  
 96   	5.5718    	-70.122986  
 97   	5.6305    	-70.122986  
 98   	5.6891    	-70.266785  
 99   	5.7478    	-69.907410  
 100  	5.8065    	-69.404236  
 101  	5.8651    	-69.260498  
 102  	5.9238    	-69.548035  
 103  	5.9824    	-69.979248  
 104  	6.0411    	-69.188660  
 105  	6.0997    	-69.835510  
 106  	6.1584    	-70.913635  
 107  	6.2170    	-70.626152  
 108  	6.2757    	-69.835510  
 109  	6.3343    	-69.763611  
 110  	6.3930    	-69.188660  
 111  	6.4516    	-70.122986  
 112  	6.5103    	-69.979248  
 113  	6.5689    	-70.554260  
 114  	6.6276    	-70.626152  
 115  	6.6862    	-70.482361  
 116  	6.7449    	-70.913635  
 117  	6.8035    	-71.273010  
 118  	6.8622    	-70.697998  
 119  	6.9208    	-70.841736  
 120  	6.9795    	-71.129272  
 121  	7.0381    	-70.266785  
 122  	7.0968    	-69.979248  
 123  	7.1554    	-69.691772  
 124  	7.2141    	-69.979248  
 125  	7.2727    	-70.626152  
 126  	7.3314    	-70.697998  
 127  	7.3900    	-70.985535  
 128  	7.4487    	-71.848015  
 129  	7.5073    	-71.776123  
 130  	7.5660    	-70.769897  
 131  	7.6246    	-70.266785  
 132  	7.6833    	-70.051140  
 133  	7.7419    	-70.338623  
 134  	7.8006    	-70.913635  
 135  	7.8592    	-70.554260  
 136  	7.9179    	-69.907410  
 137  	7.9765    	-69.979248  
 138  	8.0352    	-69.835510  
 139  	8.0938    	-69.188660  
 140  	8.1525    	-69.116760  
 141  	8.2111    	-68.757385  
 142  	8.2698    	-69.332397  
 143  	8.3284    	-69.763611  
 144  	8.3871    	-69.476128  
 145  	8.4457    	-69.404236  
 146  	8.5044    	-68.541748  
 147  	8.5630    	-69.044853  
 148  	8.6217    	-69.619865  
 149  	8.6804    	-70.051140  
 150  	8.7390    	-70.266785  
 151  	8.7977    	-70.338623  
 152  	8.8563    	-69.691772  
 153  	8.9150    	-70.194885  
 154  	8.9736    	-70.194885  
 155  	9.0323    	-70.338623  
 156  	9.0909    	-70.051140  
 157  	9.1496    	-70.482361  
 158  	9.2082    	-69.188660  
 159  	9.2669    	-69.835510  
 160  	9.3255    	-69.979248  
 161  	9.3842    	-69.619865  
 162  	9.4428    	-69.835510  
 163  	9.5015    	-69.979248  
 164  	9.5601    	-69.188660  
 165  	9.6188    	-69.116760  
 166  	9.6774    	-69.619865  
 167  	9.7361    	-69.260498  
 168  	9.7947    	-70.051140  
 169  	9.8534    	-70.410522  
 170  	9.9120    	-69.907410  
 171  	9.9707    	-69.332397  
 172  	10.0293   	-69.476128  
 173  	10.0880   	-69.260498  
 174  	10.1466   	-69.691772  
 175  	10.2053   	-68.757385  
 176  	10.2639   	-68.541748  
 177  	10.3226   	-68.110527  
 178  	10.3812   	-68.685486  
 179  	10.4399   	-68.182373  
 180  	10.4985   	-68.829285  
 181  	10.5572   	-67.894897  
 182  	10.6158   	-67.391785  
 183  	10.6745   	-67.751160  
 184  	10.7331   	-67.822998  
 185  	10.7918   	-69.044853  
 186  	10.8504   	-68.973022  
 187  	10.9091   	-68.398010  
 188  	10.9677   	-68.829285  
 189  	11.0264   	-68.973022  
 190  	11.0850   	-68.829285  
 191  	11.1437   	-69.404236  
 192  	11.2023   	-69.907410  
 193  	11.2610   	-69.116760  
 194  	11.3196   	-70.554260  
 195  	11.3783   	-69.332397  
 196  	11.4370   	-69.979248  
 197  	11.4956   	-68.685486  
 198  	11.5543   	-69.476128  
 199  	11.6129   	-69.404236  
 200  	11.6716   	-68.110527  
 201  	11.7302   	-68.973022  
 202  	11.7889   	-69.548035  
 203  	11.8475   	-69.907410  
 204  	11.9062   	-69.404236  
 205  	11.9648   	-69.044853  
 206  	12.0235   	-69.116760  
 207  	12.0821   	-68.398010  
 208  	12.1408   	-69.260498  
 209  	12.1994   	-70.051140  
 210  	12.2581   	-69.188660  
 211  	12.3167   	-69.188660  
 212  	12.3754   	-69.619865  
 213  	12.4340   	-69.907410  
 214  	12.4927   	-69.116760  
 215  	12.5513   	-69.116760  
 216  	12.6100   	-67.391785  
 217  	12.6686   	-68.182373  
 218  	12.7273   	-68.254272  
 219  	12.7859   	-68.254272  
 220  	12.8446   	-68.541748  
 221  	12.9032   	-69.404236  
 222  	12.9619   	-69.260498  
 223  	13.0205   	-69.332397  
 224  	13.0792   	-69.188660  
 225  	13.1378   	-68.685486  
 226  	13.1965   	-68.110527  
 227  	13.2551   	-68.038635  
 228  	13.3138   	-68.685486  
 229  	13.3724   	-68.398010  
 230  	13.4311   	-68.901123  
 231  	13.4897   	-68.973022  
 232  	13.5484   	-68.038635  
 233  	13.6070   	-68.326111  
 234  	13.6657   	-68.182373  
 235  	13.7243   	-68.326111  
 236  	13.7830   	-68.973022  
 237  	13.8416   	-67.391785  
 238  	13.9003   	-68.182373  
 239  	13.9589   	-68.326111  
 240  	14.0176   	-69.907410  
 241  	14.0762   	-69.979248  
 242  	14.1349   	-69.188660  
 243  	14.1935   	-69.835510  
 244  	14.2522   	-68.829285  
 245  	14.3109   	-68.757385  
 246  	14.3695   	-68.326111  
 247  	14.4282   	-67.966736  
 248  	14.4868   	-67.751160  
 249  	14.5455   	-67.607361  
 250  	14.6041   	-67.463623  
 251  	14.6628   	-67.176147  
 252  	14.7214   	-68.254272  
 253  	14.7801   	-69.188660  
 254  	14.8387   	-68.110527  
 255  	14.8974   	-68.685486  
 256  	14.9560   	-69.188660  
 257  	15.0147   	-69.979248  
 258  	15.0733   	-68.541748  
 259  	15.1320   	-69.332397  
 260  	15.1906   	-68.757385  
 261  	15.2493   	-68.254272  
 262  	15.3079   	-67.894897  
 263  	15.3666   	-68.398010  
 264  	15.4252   	-68.038635  
 265  	15.4839   	-68.254272  
 266  	15.5425   	-67.822998  
 267  	15.6012   	-68.469910  
 268  	15.6598   	-67.894897  
 269  	15.7185   	-67.247986  
 270  	15.7771   	-67.679253  
 271  	15.8358   	-67.822998  
 272  	15.8944   	-66.816772  
 273  	15.9531   	-67.104240  
 274  	16.0117   	-67.319885  
 275  	16.0704   	-66.457397  
 276  	16.1290   	-66.169861  
 277  	16.1877   	-65.810486  
 278  	16.2463   	-65.738640  
 279  	16.3050   	-65.379272  
 280  	16.3636   	-66.313660  
 281  	16.4223   	-65.738640  
 282  	16.4809   	-64.876160  
 283  	16.5396   	-63.510494  
 284  	16.5982   	-62.288631  
 285  	16.6569   	-61.066772  
 286  	16.7155   	-60.132385  
 287  	16.7742   	-59.485531  
 288  	16.8328   	-57.832394  
 289  	16.8915   	-53.447998  
 290  	16.9501   	-33.610535  
 291  	17.0088   	-13.413635  
 292  	17.0674   	3.908264    
 293  	17.1261   	17.636414   
 294  	17.1848   	28.130064   
 295  	17.2434   	35.245789   
 296  	17.3021   	42.648865   
 297  	17.3607   	46.242615   
 298  	17.4194   	49.045712   
 299  	17.4780   	51.633240   
 300  	17.5367   	53.214539   
 301  	17.5953   	54.723812   
 302  	17.6540   	56.017639   
 303  	17.7126   	57.383240   
 304  	17.7713   	58.317566   
 305  	17.8299   	59.683285   
 306  	17.8886   	60.042664   
 307  	17.9472   	61.695740   
 308  	18.0059   	63.133236   
 309  	18.0645   	63.348812   
 310  	18.1232   	63.708191   
 311  	18.1818   	64.355164   
 312  	18.2405   	64.498840   
 313  	18.2991   	64.642639   
 314  	18.3578   	65.864441   
 315  	18.4164   	66.080139   
 316  	18.4751   	66.655090   
 317  	18.5337   	67.158257   
 318  	18.5924   	66.152039   
 319  	18.6510   	66.726982   
 320  	18.7097   	67.948914   
 321  	18.7683   	67.086365   
 322  	18.8270   	68.020691   
 323  	18.8856   	68.595764   
 324  	18.9443   	68.523857   
 325  	19.0029   	69.601990   
 326  	19.0616   	68.883240   
 327  	19.1202   	68.811340   
 328  	19.1789   	69.314514   
 329  	19.2375   	69.170715   
 330  	19.2962   	69.961365   
 331  	19.3548   	70.105156   
 332  	19.4135   	70.464539   
 333  	19.4721   	70.536316   
 334  	19.5308   	69.601990   
 335  	19.5894   	70.105156   
 336  	19.6481   	70.895691   
 337  	19.7067   	70.320740   
 338  	19.7654   	70.105156   
 339  	19.8240   	69.314514   
 340  	19.8827   	70.392639   
 341  	19.9413   	70.033264   
 342  	20.0000   	69.530090   
 343  	20.0587   	68.667664   
 344  	20.1173   	68.955139   
 345  	20.1760   	68.595764   
 346  	20.2346   	69.530090   
 347  	20.2933   	69.889465   
 348  	20.3519   	69.673882   
 349  	20.4106   	69.601990   
 350  	20.4692   	70.464539   
 351  	20.5279   	70.033264   
 352  	20.5865   	69.961365   
 353  	20.6452   	69.530090   
 354  	20.7038   	69.601990   
 355  	20.7625   	70.608208   
 356  	20.8211   	70.392639   
 357  	20.8798   	70.320740   
 358  	20.9384   	70.105156   
 359  	20.9971   	70.392639   
 360  	21.0557   	70.392639   
 361  	21.1144   	70.823914   
 362  	21.1730   	71.614441   
 363  	21.2317   	71.686340   
 364  	21.2903   	70.895691   
 365  	21.3490   	70.608208   
 366  	21.4076   	70.320740   
 367  	21.4663   	70.608208   
 368  	21.5249   	71.398865   
 369  	21.5836   	70.464539   
 370  	21.6422   	70.320740   
 371  	21.7009   	69.817566   
 372  	21.7595   	69.458183   
 373  	21.8182   	69.961365   
 374  	21.8768   	70.033264   
 375  	21.9355   	69.961365   
 376  	21.9941   	69.961365   
 377  	22.0528   	70.033264   
 378  	22.1114   	70.176941   
 379  	22.1701   	70.176941   
 380  	22.2287   	70.248840   
 381  	22.2874   	69.817566   
 382  	22.3460   	70.248840   
 383  	22.4047   	70.752014   
 384  	22.4633   	71.326965   
 385  	22.5220   	71.542664   
 386  	22.5806   	71.686340   
 387  	22.6393   	71.326965   
 388  	22.6979   	71.111389   
 389  	22.7566   	71.326965   
 390  	22.8152   	71.398865   
 391  	22.8739   	71.039482   
 392  	22.9326   	70.033264   
 393  	22.9912   	69.889465   
 394  	23.0499   	70.248840   
 395  	23.1085   	71.183289   
 396  	23.1672   	71.830139   
 397  	23.2258   	71.326965   
 398  	23.2845   	69.961365   
 399  	23.3431   	69.601990   
 400  	23.4018   	70.033264   
 401  	23.4604   	69.961365   
 402  	23.5191   	70.248840   
 403  	23.5777   	70.248840   
 404  	23.6364   	70.248840   
 405  	23.6950   	70.176941   
 406  	23.7537   	70.033264   
 407  	23.8123   	70.033264   
 408  	23.8710   	68.811340   
 409  	23.9296   	68.739441   
 410  	23.9883   	68.523857   
 411  	24.0469   	68.523857   
 412  	24.1056   	68.811340   
 413  	24.1642   	69.745789   
 414  	24.2229   	69.889465   
 415  	24.2815   	68.451965   
 416  	24.3402   	68.451965   
 417  	24.3988   	67.877014   
 418  	24.4575   	68.164490   
 419  	24.5161   	67.661308   
 420  	24.5748   	67.733215   
 421  	24.6334   	67.589531   
 422  	24.6921   	68.667664   
 423  	24.7507   	67.877014   
 424  	24.8094   	67.301941   
 425  	24.8680   	68.236389   
 426  	24.9267   	66.942566   
 427  	24.9853   	68.451965   
 428  	25.0440   	68.667664   
 429  	25.1026   	68.020691   
 430  	25.1613   	67.661308   
 431  	25.2199   	67.589531   
 432  	25.2786   	68.451965   
 433  	25.3372   	67.589531   
 434  	25.3959   	67.805115   
 435  	25.4545   	67.445740   
 436  	25.5132   	66.295708   
 437  	25.5718   	66.583191   
 438  	25.6305   	66.870789   
 439  	25.6891   	68.164490   
 440  	25.7478   	67.158257   
 441  	25.8065   	68.236389   
 442  	25.8651   	66.870789   
 443  	25.9238   	67.661308   
 444  	25.9824   	67.373840   
 445  	26.0411   	68.523857   
 446  	26.0997   	67.158257   
 447  	26.1584   	68.883240   
 448  	26.2170   	67.877014   
 449  	26.2757   	68.308289   
 450  	26.3343   	67.661308   
 451  	26.3930   	68.380066   
 452  	26.4516   	67.230164   
 453  	26.5103   	67.805115   
 454  	26.5689   	67.517639   
 455  	26.6276   	68.739441   
 456  	26.6862   	67.661308   
 457  	26.7449   	67.373840   
 458  	26.8035   	67.733215   
 459  	26.8622   	67.445740   
 460  	26.9208   	67.805115   
 461  	26.9795   	67.517639   
 462  	27.0381   	67.517639   
 463  	27.0968   	66.726982   
 464  	27.1554   	66.583191   
 465  	27.2141   	66.439514   
 466  	27.2727   	66.726982   
 467  	27.3314   	66.726982   
 468  	27.3900   	66.942566   
 469  	27.4487   	66.655090   
 470  	27.5073   	65.936340   
 471  	27.5660   	65.433289   
 472  	27.6246   	64.498840   
 473  	27.6833   	64.211357   
 474  	27.7419   	62.414486   
 475  	27.8006   	61.839539   
 476  	27.8592   	60.617611   
 477  	27.9179   	60.186337   
 478  	27.9765   	59.826965   
 479  	28.0352   	58.748840   
 480  	28.0938   	58.173889   
 481  	28.1525   	55.801941   
 482  	28.2111   	54.795715   
 483  	28.2698   	54.723812   
 484  	28.3284   	53.789486   
 485  	28.3871   	51.992611   
 486  	28.4457   	51.561337   
 487  	28.5044   	50.986389   
 488  	28.5630   	51.273861   
 489  	28.6217   	50.339535   
 490  	28.6804   	49.836365   
 491  	28.7390   	48.398861   
 492  	28.7977   	46.242615   
 493  	28.8563   	45.020687   
 494  	28.9150   	43.870789   
 495  	28.9736   	42.361385   
 496  	29.0323   	40.420715   
 497  	29.0909   	40.061340   
 498  	29.1496   	38.408264   
 499  	29.2082   	36.970764   
 500  	29.2669   	36.180115   
 501  	29.3255   	35.676941   
 502  	29.3842   	33.305115   
 503  	29.4428   	31.867615   
 504  	29.5015   	29.495789   
 505  	29.5601   	27.698912   
 506  	29.6188   	26.476988   
 507  	29.6774   	25.830139   
 508  	29.7361   	24.248838   
 509  	29.7947   	22.883238   
 510  	29.8534   	22.092588   
 511  	29.9120   	20.798889   
 512  	29.9707   	18.714539   
 513  	30.0293   	16.198914   
 514  	30.0880   	14.114440   
 515  	30.1466   	12.245788   
 516  	30.2053   	10.592589   
 517  	30.2639   	8.580139    
 518  	30.3226   	6.639465    
 519  	30.3812   	4.770691    
 520  	30.4399   	2.973816    
 521  	30.4985   	0.817566    
 522  	30.5572   	-0.979309   
 523  	30.6158   	-3.063660   
 524  	30.6745   	-4.932434   
 525  	30.7331   	-7.663635   
 526  	30.7918   	-10.394835  
 527  	30.8504   	-11.329284  
 528  	30.9091   	-13.557434  
 529  	30.9677   	-15.713623  
 530  	31.0264   	-18.085510  
 531  	31.0850   	-20.673035  
 532  	31.1437   	-22.469910  
 533  	31.2023   	-23.476133  
 534  	31.2610   	-24.697998  
 535  	31.3196   	-25.560486  
 536  	31.3783   	-27.141785  
 537  	31.4370   	-27.572996  
 538  	31.4956   	-28.938660  
 539  	31.5543   	-29.801147  
 540  	31.6129   	-31.957397  
 541  	31.6716   	-33.251160  
 542  	31.7302   	-33.754272  
 543  	31.7889   	-35.048035  
 544  	31.8475   	-36.269894  
 545  	31.9062   	-37.348022  
 546  	31.9648   	-38.713623  
 547  	32.0235   	-38.641785  
 548  	32.0821   	-40.510498  
 549  	32.1408   	-41.229248  
 550  	32.1994   	-42.594910  
 551  	32.2581   	-43.529236  
 552  	32.3167   	-44.894894  
 553  	32.3754   	-46.116756  
 554  	32.4340   	-47.626160  
 555  	32.4927   	-48.416748  
 556  	32.5513   	-48.991760  
 557  	32.6100   	-50.501160  
 558  	32.6686   	-51.363647  
 559  	32.7273   	-53.447998  
 560  	32.7859   	-54.526123  
 561  	32.8446   	-54.454285  
 562  	32.9032   	-55.388611  
 563  	32.9619   	-56.466736  
 564  	33.0205   	-57.616760  
 565  	33.0792   	-58.191772  
 566  	33.1378   	-57.760498  
 567  	33.1965   	-57.688656  
 568  	33.2551   	-58.479244  
 569  	33.3138   	-59.485531  
 570  	33.3724   	-59.988647  
 571  	33.4311   	-60.060486  
 572  	33.4897   	-60.851131  
 573  	33.5484   	-60.851131  
 574  	33.6070   	-62.072998  
 575  	33.6657   	-62.216736  
 576  	33.7243   	-62.360535  
 577  	33.7830   	-63.079285  
 578  	33.8416   	-63.582397  
 579  	33.9003   	-64.372986  
 580  	33.9589   	-65.019897  
 581  	34.0176   	-64.947998  
 582  	34.0762   	-65.451111  
 583  	34.1349   	-66.457397  
 584  	34.1935   	-66.385498  
 585  	34.2522   	-66.673035  
 586  	34.3109   	-67.032410  
 587  	34.3695   	-67.535515  
 588  	34.4282   	-68.038635  
 589  	34.4868   	-67.822998  
 590  	34.5455   	-67.391785  
 591  	34.6041   	-67.247986  
 592  	34.6628   	-67.463623  
 593  	34.7214   	-68.182373  
 594  	34.7801   	-68.038635  
 595  	34.8387   	-68.398010  
 596  	34.8974   	-68.182373  
 597  	34.9560   	-68.038635  
 598  	35.0147   	-68.757385  
 599  	35.0733   	-69.116760  
 600  	35.1320   	-69.260498  
 601  	35.1906   	-68.685486  
 602  	35.2493   	-68.469910  
 603  	35.3079   	-68.038635  
 604  	35.3666   	-68.469910  
 605  	35.4252   	-69.835510  
 606  	35.4839   	-69.260498  
 607  	35.5425   	-70.266785  
 608  	35.6012   	-69.763611  
 609  	35.6598   	-70.554260  
 610  	35.7185   	-69.619865  
 611  	35.7771   	-70.122986  
 612  	35.8358   	-70.266785  
 613  	35.8944   	-70.051140  
 614  	35.9531   	-69.691772  
 615  	36.0117   	-70.266785  
 616  	36.0704   	-69.979248  
 617  	36.1290   	-69.619865  
 618  	36.1877   	-70.410522  
 619  	36.2463   	-70.194885  
 620  	36.3050   	-71.129272  
 621  	36.3636   	-70.626152  
 622  	36.4223   	-70.697998  
 623  	36.4809   	-69.907410  
 624  	36.5396   	-69.907410  
 625  	36.5982   	-69.907410  
 626  	36.6569   	-69.548035  
 627  	36.7155   	-70.410522  
 628  	36.7742   	-70.194885  
 629  	36.8328   	-70.051140  
 630  	36.8915   	-69.907410  
 631  	36.9501   	-69.691772  
 632  	37.0088   	-69.907410  
 633  	37.0674   	-69.763611  
 634  	37.1261   	-70.051140  
 635  	37.1848   	-69.619865  
 636  	37.2434   	-70.051140  
 637  	37.3021   	-69.404236  
 638  	37.3607   	-69.476128  
 639  	37.4194   	-68.901123  
 640  	37.4780   	-67.966736  
 641  	37.5367   	-67.751160  
 642  	37.5953   	-68.326111  
 643  	37.6540   	-67.535515  
 644  	37.7126   	-65.954285  
 645  	37.7713   	-65.235535  
 646  	37.8299   	-56.322998  
 647  	37.8886   	-46.907410  
 648  	37.9472   	-40.726131  
 649  	38.0059   	-38.929260  
 650  	38.0645   	-39.719910  
 651  	38.1232   	-41.013611  
 652  	38.1818   	-43.169861  
 653  	38.2405   	-45.110535  
 654  	38.2991   	-47.697998  
 655  	38.3578   	-48.991760  
 656  	38.4164   	-51.866760  
 657  	38.4751   	-53.519894  
 658  	38.5337   	-55.316769  
 659  	38.5924   	-58.263611  
 660  	38.6510   	-59.341732  
 661  	38.7097   	-60.348019  
 662  	38.7683   	-60.491756  
 663  	38.8270   	-61.354248  
 664  	38.8856   	-62.791744  
 665  	38.9443   	-63.366756  
 666  	39.0029   	-63.294861  
 667  	39.0616   	-63.869873  
 668  	39.1202   	-64.444885  
 669  	39.1789   	-65.019897  
 670  	39.2375   	-64.876160  
 671  	39.2962   	-64.947998  
 672  	39.3548   	-65.882385  
 673  	39.4135   	-66.313660  
 674  	39.4721   	-66.385498  
 675  	39.5308   	-65.882385  
 676  	39.5894   	-66.098022  
 677  	39.6481   	-66.169861  
 678  	39.7067   	-66.816772  
 679  	39.7654   	-66.744873  
 680  	39.8240   	-66.816772  
 681  	39.8827   	-67.032410  
 682  	39.9413   	-66.529236  
 683  	40.0000   	-67.319885  
 684  	40.0587   	-67.751160  
 685  	40.1173   	-68.901123  
 686  	40.1760   	-68.038635  
 687  	40.2346   	-67.751160  
 688  	40.2933   	-68.110527  
 689  	40.3519   	-67.751160  
 690  	40.4106   	-67.679253  
 691  	40.4692   	-67.319885  
 692  	40.5279   	-68.469910  
 693  	40.5865   	-69.044853  
 694  	40.6452   	-67.894897  
 695  	40.7038   	-67.822998  
 696  	40.7625   	-68.254272  
 697  	40.8211   	-67.751160  
 698  	40.8798   	-67.032410  
 699  	40.9384   	-67.894897  
 700  	40.9971   	-68.541748  
 701  	41.0557   	-69.691772  
 702  	41.1144   	-69.619865  
 703  	41.1730   	-69.979248  
 704  	41.2317   	-70.194885  
 705  	41.2903   	-68.613647  
 706  	41.3490   	-68.469910  
 707  	41.4076   	-68.973022  
 708  	41.4663   	-69.116760  
 709  	41.5249   	-68.973022  
 710  	41.5836   	-68.398010  
 711  	41.6422   	-69.332397  
 712  	41.7009   	-69.260498  
 713  	41.7595   	-68.757385  
 714  	41.8182   	-68.613647  
 715  	41.8768   	-69.476128  
 716  	41.9355   	-69.188660  
 717  	41.9941   	-69.116760  
 718  	42.0528   	-68.901123  
 719  	42.1114   	-68.685486  
 720  	42.1701   	-68.541748  
 721  	42.2287   	-67.751160  
 722  	42.2874   	-68.182373  
 723  	42.3460   	-69.476128  
 724  	42.4047   	-68.469910  
 725  	42.4633   	-69.044853  
 726  	42.5220   	-69.044853  
 727  	42.5806   	-68.469910  
 728  	42.6393   	-68.757385  
 729  	42.6979   	-67.966736  
 730  	42.7566   	-68.757385  
 731  	42.8152   	-69.044853  
 732  	42.8739   	-68.541748  
 733  	42.9326   	-68.685486  
 734  	42.9912   	-68.685486  
 735  	43.0499   	-68.901123  
 736  	43.1085   	-68.685486  
 737  	43.1672   	-69.619865  
 738  	43.2258   	-68.973022  
 739  	43.2845   	-69.260498  
 740  	43.3431   	-69.619865  
 741  	43.4018   	-69.044853  
 742  	43.4604   	-69.044853  
 743  	43.5191   	-68.541748  
 744  	43.5777   	-68.326111  
 745  	43.6364   	-68.541748  
 746  	43.6950   	-67.966736  
 747  	43.7537   	-68.326111  
 748  	43.8123   	-68.541748  
 749  	43.8710   	-68.613647  
 750  	43.9296   	-68.613647  
 751  	43.9883   	-69.044853  
 752  	44.0469   	-68.110527  
 753  	44.1056   	-69.260498  
 754  	44.1642   	-69.116760  
 755  	44.2229   	-68.541748  
 756  	44.2815   	-69.548035  
 757  	44.3402   	-68.973022  
 758  	44.3988   	-69.260498  
 759  	44.4575   	-68.901123  
 760  	44.5161   	-69.044853  
 761  	44.5748   	-69.404236  
 762  	44.6334   	-68.541748  
 763  	44.6921   	-68.398010  
 764  	44.7507   	-68.326111  
 765  	44.8094   	-68.469910  
 766  	44.8680   	-68.829285  
 767  	44.9267   	-68.829285  
 768  	44.9853   	-69.476128  
 769  	45.0440   	-68.973022  
 770  	45.1026   	-69.979248  
 771  	45.1613   	-69.548035  
 772  	45.2199   	-69.979248  
 773  	45.2786   	-70.554260  
 774  	45.3372   	-70.266785  
 775  	45.3959   	-69.332397  
 776  	45.4545   	-69.260498  
 777  	45.5132   	-69.116760  
 778  	45.5718   	-68.469910  
 779  	45.6305   	-68.541748  
 780  	45.6891   	-68.110527  
 781  	45.7478   	-67.966736  
 782  	45.8065   	-67.822998  
 783  	45.8651   	-68.398010  
 784  	45.9238   	-68.973022  
 785  	45.9824   	-69.188660  
 786  	46.0411   	-68.613647  
 787  	46.0997   	-68.973022  
 788  	46.1584   	-68.757385  
 789  	46.2170   	-69.188660  
 790  	46.2757   	-68.254272  
 791  	46.3343   	-68.613647  
 792  	46.3930   	-69.548035  
 793  	46.4516   	-69.188660  
 794  	46.5103   	-68.901123  
 795  	46.5689   	-69.188660  
 796  	46.6276   	-69.044853  
 797  	46.6862   	-68.182373  
 798  	46.7449   	-69.044853  
 799  	46.8035   	-68.182373  
 800  	46.8622   	-68.398010  
 801  	46.9208   	-67.104240  
 802  	46.9795   	-67.535515  
 803  	47.0381   	-67.751160  
 804  	47.0968   	-67.822998  
 805  	47.1554   	-68.254272  
 806  	47.2141   	-68.469910  
 807  	47.2727   	-69.476128  
 808  	47.3314   	-69.979248  
 809  	47.3900   	-70.194885  
 810  	47.4487   	-69.907410  
 811  	47.5073   	-69.835510  
 812  	47.5660   	-69.691772  
 813  	47.6246   	-69.332397  
 814  	47.6833   	-68.038635  
 815  	47.7419   	-68.541748  
 816  	47.8006   	-67.894897  
 817  	47.8592   	-68.757385  
 818  	47.9179   	-68.757385  
 819  	47.9765   	-67.751160  
 820  	48.0352   	-68.613647  
 821  	48.0938   	-68.829285  
 822  	48.1525   	-68.110527  
 823  	48.2111   	-69.619865  
 824  	48.2698   	-69.332397  
 825  	48.3284   	-69.332397  
 826  	48.3871   	-68.541748  
 827  	48.4457   	-68.757385  
 828  	48.5044   	-68.326111  
 829  	48.5630   	-68.182373  
 830  	48.6217   	-68.541748  
 831  	48.6804   	-69.548035  
 832  	48.7390   	-68.757385  
 833  	48.7977   	-69.332397  
 834  	48.8563   	-69.332397  
 835  	48.9150   	-68.757385  
 836  	48.9736   	-69.260498  
 837  	49.0323   	-68.973022  
 838  	49.0909   	-69.332397  
 839  	49.1496   	-69.188660  
 840  	49.2082   	-68.613647  
 841  	49.2669   	-68.901123  
 842  	49.3255   	-68.469910  
 843  	49.3842   	-68.254272  
 844  	49.4428   	-67.894897  
 845  	49.5015   	-67.822998  
 846  	49.5601   	-68.182373  
 847  	49.6188   	-68.829285  
 848  	49.6774   	-69.188660  
 849  	49.7361   	-69.619865  
 850  	49.7947   	-69.763611  
 851  	49.8534   	-69.476128  
 852  	49.9120   	-69.188660  
 853  	49.9707   	-69.907410  
 854  	50.0293   	-68.829285  
 855  	50.0880   	-69.476128  
 856  	50.1466   	-69.548035  
 857  	50.2053   	-68.973022  
 858  	50.2639   	-69.476128  
 859  	50.3226   	-69.332397  
 860  	50.3812   	-69.260498  
 861  	50.4399   	-69.907410  
 862  	50.4985   	-69.188660  
 863  	50.5572   	-68.541748  
 864  	50.6158   	-68.182373  
 865  	50.6745   	-67.607361  
 866  	50.7331   	-67.679253  
 867  	50.7918   	-67.391785  
 868  	50.8504   	-68.254272  
 869  	50.9091   	-68.757385  
 870  	50.9677   	-68.398010  
 871  	51.0264   	-68.038635  
 872  	51.0850   	-68.685486  
 873  	51.1437   	-69.476128  
 874  	51.2023   	-69.476128  
 875  	51.2610   	-69.404236  
 876  	51.3196   	-69.763611  
 877  	51.3783   	-69.691772  
 878  	51.4370   	-68.685486  
 879  	51.4956   	-69.116760  
 880  	51.5543   	-68.685486  
 881  	51.6129   	-68.469910  
 882  	51.6716   	-67.822998  
 883  	51.7302   	-68.757385  
 884  	51.7889   	-68.254272  
 885  	51.8475   	-68.901123  
 886  	51.9062   	-69.116760  
 887  	51.9648   	-68.757385  
 888  	52.0235   	-69.044853  
 889  	52.0821   	-69.260498  
 890  	52.1408   	-69.548035  
 891  	52.1994   	-68.685486  
 892  	52.2581   	-69.116760  
 893  	52.3167   	-69.116760  
 894  	52.3754   	-69.619865  
 895  	52.4340   	-69.332397  
 896  	52.4927   	-68.973022  
 897  	52.5513   	-69.116760  
 898  	52.6100   	-68.254272  
 899  	52.6686   	-69.188660  
 900  	52.7273   	-68.973022  
 901  	52.7859   	-69.116760  
 902  	52.8446   	-68.973022  
 903  	52.9032   	-68.829285  
 904  	52.9619   	-68.326111  
 905  	53.0205   	-69.404236  
 906  	53.0792   	-69.404236  
 907  	53.1378   	-69.476128  
 908  	53.1965   	-68.685486  
 909  	53.2551   	-68.757385  
 910  	53.3138   	-68.398010  
 911  	53.3724   	-68.973022  
 912  	53.4311   	-68.973022  
 913  	53.4897   	-68.829285  
 914  	53.5484   	-67.894897  
 915  	53.6070   	-68.757385  
 916  	53.6657   	-68.757385  
 917  	53.7243   	-69.044853  
 918  	53.7830   	-69.548035  
 919  	53.8416   	-68.829285  
 920  	53.9003   	-69.763611  
 921  	53.9589   	-70.697998  
 922  	54.0176   	-69.835510  
 923  	54.0762   	-71.057373  
 924  	54.1349   	-70.194885  
 925  	54.1935   	-70.122986  
 926  	54.2522   	-69.691772  
 927  	54.3109   	-69.619865  
 928  	54.3695   	-68.398010  
 929  	54.4282   	-68.038635  
 930  	54.4868   	-67.822998  
 931  	54.5455   	-67.679253  
 932  	54.6041   	-68.469910  
 933  	54.6628   	-69.116760  
 934  	54.7214   	-68.829285  
 935  	54.7801   	-68.757385  
 936  	54.8387   	-68.757385  
 937  	54.8974   	-68.110527  
 938  	54.9560   	-67.966736  
 939  	55.0147   	-68.757385  
 940  	55.0733   	-68.613647  
 941  	55.1320   	-69.332397  
 942  	55.1906   	-68.757385  
 943  	55.2493   	-68.901123  
 944  	55.3079   	-68.901123  
 945  	55.3666   	-68.254272  
 946  	55.4252   	-68.829285  
 947  	55.4839   	-68.973022  
 948  	55.5425   	-69.691772  
 949  	55.6012   	-68.757385  
 950  	55.6598   	-69.260498  
 951  	55.7185   	-69.332397  
 952  	55.7771   	-69.260498  
 953  	55.8358   	-69.763611  
 954  	55.8944   	-70.266785  
 955  	55.9531   	-69.691772  
 956  	56.0117   	-68.685486  
 957  	56.0704   	-68.254272  
 958  	56.1290   	-68.973022  
 959  	56.1877   	-69.548035  
 960  	56.2463   	-70.122986  
 961  	56.3050   	-70.338623  
 962  	56.3636   	-69.476128  
 963  	56.4223   	-70.338623  
 964  	56.4809   	-69.548035  
 965  	56.5396   	-70.626152  
 966  	56.5982   	-70.338623  
 967  	56.6569   	-70.051140  
 968  	56.7155   	-70.338623  
 969  	56.7742   	-69.619865  
 970  	56.8328   	-70.913635  
 971  	56.8915   	-70.626152  
 972  	56.9501   	-70.266785  
 973  	57.0088   	-68.973022  
 974  	57.0674   	-69.548035  
 975  	57.1261   	-69.619865  
 976  	57.1848   	-70.554260  
 977  	57.2434   	-69.907410  
 978  	57.3021   	-70.841736  
 979  	57.3607   	-70.122986  
 980  	57.4194   	-71.273010  
 981  	57.4780   	-71.488647  
 982  	57.5367   	-71.704285  
 983  	57.5953   	-71.416740  
 984  	57.6540   	-70.194885  
 985  	57.7126   	-69.979248  
 986  	57.7713   	-69.691772  
 987  	57.8299   	-70.626152  
 988  	57.8886   	-69.763611  
 989  	57.9472   	-70.338623  
 990  	58.0059   	-69.763611  
 991  	58.0645   	-70.410522  
 992  	58.1232   	-69.619865  
 993  	58.1818   	-69.404236  
 994  	58.2405   	-68.973022  
 995  	58.2991   	-68.613647  
 996  	58.3578   	-68.973022  
 997  	58.4164   	-68.829285  
 998  	58.4751   	-68.757385  
 999  	58.5337   	-68.038635  
 1000 	58.5924   	-68.254272  
 1001 	58.6510   	-67.822998  
 1002 	58.7097   	-68.110527  
 1003 	58.7683   	-68.757385  
 1004 	58.8270   	-68.613647  
 1005 	58.8856   	-68.326111  
 1006 	58.9443   	-67.966736  
 1007 	59.0029   	-68.541748  
 1008 	59.0616   	-68.326111  
 1009 	59.1202   	-66.529236  
 1010 	59.1789   	-66.816772  
 1011 	59.2375   	-67.247986  
 1012 	59.2962   	-67.535515  
 1013 	59.3548   	-67.966736  
 1014 	59.4135   	-68.182373  
 1015 	59.4721   	-68.541748  
 1016 	59.5308   	-68.182373  
 1017 	59.5894   	-67.894897  
 1018 	59.6481   	-67.966736  
 1019 	59.7067   	-68.398010  
 1020 	59.7654   	-68.398010  
 1021 	59.8240   	-68.685486  
 1022 	59.8827   	-68.757385  
 1023 	59.9413   	-67.751160  
 1024 	60.0000   	-68.254272  

